Epoch_time_s,milliseconds_elapsed,Ax,Ay,Az,Gx,Gy,Gz
1609459203,0,-0.28125,1.006836,0.3730469,2.572519,-13.9084,16.52672
1609459203,217,-0.04833984,1.03418,0.3486328,8.061069,-17.67175,3.290076
1609459204,0,0.02197266,0.9350585,0.2548828,1.374046,-14.34351,-2.748092
1609459204,268,0.04101562,0.8789063,0.21875,2.419847,22.01526,-14.61832
1609459204,485,-0.1503906,0.9042969,0.1547852,-9.885496,21.74809,-0.5496183
1609459204,703,-0.1958008,0.9165039,0.1899414,-13.0687,21.26718,2.763359
1609459205,0,-0.1899414,0.9042969,0.1787109,13.66412,-18.42748,-9.152672
1609459205,261,-0.07177734,0.9511718,0.1425781,33.93893,-52.14504,-0.00763359
1609459205,518,-0.1694336,1.053711,-0.0600586,15.58779,-48.91603,-1.900763
1609459205,773,-0.128418,1.041504,-0.04736328,-10.78626,-40.59542,-17.43511
1609459206,0,-0.1308594,0.9892578,-0.07177734,-6.801527,-13.67939,-5.587786
1609459206,256,-0.2319336,1.365234,0.1806641,-39.93893,1.51145,12.96183
1609459206,516,-0.125,0.8457031,0.2255859,-21.71756,7.816793,17.43511
1609459206,774,-0.1879883,0.9145508,0.2192383,3.625954,-17.43511,-1.633588
1609459207,0,-0.2026367,1.025879,0.1088867,30.05343,-11.14504,-6.72519
1609459207,309,-0.03320312,0.9692384,0.05761719,40.48092,-22.67939,-55.45038
1609459207,560,-0.2827148,0.9873048,-0.1049805,-43.37404,25.91603,3.045802
1609459207,815,-0.1337891,0.8310548,0.2407227,-78.39695,54.52672,51.93893
1609459208,0,-0.2543945,0.8383789,0.21875,0.4274809,20.21374,26.53435
1609459208,263,0.0834961,1.033203,0.519043,19.39695,61.1374,21.50382
1609459208,523,-0.00585938,0.9887695,0.09375,-24.22137,95.94657,14.81679
1609459208,784,-0.078125,1.077637,0.1318359,-31.64122,35.58779,-1.847328
1609459209,0,-0.1503906,0.9130859,0.15625,111.1069,-78.68702,-83.60305
1609459209,257,-0.1396484,0.8325195,0.1772461,25.74809,-41.37405,-79.94656
1609459209,517,-0.449707,1.172852,0.07714844,-30.52672,-1.778626,154.4657
1609459209,775,-0.1015625,0.8510742,0.05957031,-34.92366,69.60305,20.78626
1609459210,0,-0.5400391,1.111816,-0.1420898,52.09924,-25.64122,-144.0992
1609459210,267,-0.168457,0.7412109,0.2734375,-6.557252,6.465649,12.0687
1609459210,529,-0.2451172,1.004395,0.125,-29.31298,50.8168,170.2901
1609459211,0,-0.1889648,0.9692384,-0.04785156,6.129771,-55.28244,-52.38931
1609459211,262,-0.4101563,1.01709,-0.07666016,13.15267,-46.83969,-147.6565
1609459211,571,-0.3862305,0.7158203,0.2167969,-28.21374,21.16794,94.93893
1609459211,832,-0.3740234,0.9389649,0.1015625,-7.328245,26.21374,128.8779
1609459212,0,0.05517578,1.35791,0.1914062,40.80916,-95.771,-138.5343
1609459212,265,-0.1845703,0.8193359,-0.04003906,9.641221,-34.74046,-89.23664
1609459212,528,-0.3188477,1.082031,0.2446289,-26.96183,19.38168,110.6107
1609459212,792,-0.355957,0.8637695,0.2221679,-2.51145,9.748092,58.63358
1609459213,0,-0.01904297,1.25293,0.05566406,42.90076,-84.67939,-116.7176
1609459213,264,-0.1850586,0.9199218,0.02441406,-0.8931297,-23.46565,-56.09924
1609459213,527,-0.2646484,0.949707,0.2290039,-45.38168,6.40458,106.3053
1609459213,798,-0.3271484,0.9536133,0.175293,1.59542,3.854962,30.0916
1609459214,0,-0.04199219,1.07666,0.1757812,35.16794,-81.98473,-99.83969
1609459214,267,-0.2260742,0.9526367,0.04589844,18.64122,-13.41985,-61.24427
1609459214,539,-0.2739258,0.8017578,0.3095703,-60.25954,47.90076,107.9847
1609459215,0,-0.359375,0.8710938,0.152832,-2.59542,18.83206,46.61069
1609459215,269,-0.1157227,0.9541017,0.1235352,29.96183,-118.8015,-67.41222
1609459215,537,-0.0415039,0.90625,-0.04394531,22.70229,-84.32825,-68.62595
1609459215,855,-0.6401367,0.8383789,0.2368164,6.70229,-77.77863,5.938931
1609459216,0,-0.2978516,0.8105469,-0.07421875,28.58779,-161.9771,-18.45038
1609459216,266,0.4604492,1.177246,0.140625,29.65649,-124.687,-32.74809
1609459216,533,-0.02734375,0.7177734,0.140625,-14.48092,-58.01527,-17.9771
1609459216,802,0.1333008,0.8061523,0.6542969,-33.57252,-2.244275,-12.93893
1609459217,0,-0.2568359,-0.3105469,-0.6889649,155.6718,147.7099,-64.98473
1609459217,270,-0.2949219,0.1416016,-1.898437,246.8321,102.3206,84.96947
1609459217,539,-0.1108398,-0.3349609,-0.722168,28.07634,-135.3969,-47.76336
1609459218,0,-0.7114258,-0.4711914,-0.3842774,11.9771,-20.05343,-10.98473
1609459218,305,-0.7954102,-0.5493164,-0.5380859,-1.137405,12.37405,11.96183
1609459218,555,-0.7246094,-0.5185547,-0.4663086,-12.35878,-12.81679,24.83969
1609459218,808,-0.9145508,-0.2270508,-0.2685547,-23.59542,-18.9771,43.57252
1609459219,0,-0.9589844,-0.09375,-0.2685547,-2.732824,-19.79389,44.83969
1609459219,252,-0.9169922,0.1723633,-0.1196289,-3.274809,-0.2137404,34.12214
1609459219,505,-0.8959961,0.0805664,-0.2075196,-6.70229,-2.175573,9.564885
1609459219,757,-0.9726563,0.2802734,-0.2929688,-9.251908,4.793893,15.66412
1609459220,0,-0.8159181,0.5136719,-0.2158203,9.946565,-0.7175572,-27.65649
1609459220,257,-1.099121,-0.2231446,-0.4873047,9.801527,-36.48855,-33.36641
1609459220,512,-0.6723633,0.5078125,0.34375,4.007634,-13.71756,18.79389
1609459220,766,-0.8969727,0.2246094,0.1572266,-36.90076,-17.46565,28.23664
1609459221,0,-0.7578125,0.2011719,0.1269531,-18.53435,-10.23664,19.16031
1609459221,251,-0.8828125,0.5097656,0.171875,51.93893,-13.45802,38.78626
1609459221,502,-0.6367188,0.6567383,0.2490234,15.9771,18.13741,31.68702
1609459221,759,-0.6557617,0.7680664,0.05859375,0.7099237,18.67175,2.198473
1609459222,0,-0.6733398,0.75,-0.00585938,-5.022901,21.41985,1.335878
1609459222,256,-0.6806641,0.6713867,-0.105957,-6.366412,15.16031,1.816794
1609459222,514,-0.6552734,0.6865234,-0.1054688,-23.51908,39.8168,3.549618
1609459222,774,-0.652832,0.7324218,-0.07226562,-36.34351,-5.778626,32.25954
1609459223,0,-0.5517578,0.8427734,-0.00830078,-98.48855,-16.94657,58.98473
1609459223,254,0.1142578,0.9477539,0.5756836,-0.5496183,-3.458015,36.51908
1609459223,513,0.00292969,1.388672,0.2470703,13.50382,-29.52672,29.87786
1609459224,0,-0.0336914,0.5693359,0.03710938,1.992366,66.32061,-21.9084
1609459224,312,-0.3095703,1.306641,0.574707,-17.38168,3.664122,33.61069
1609459224,573,0.1142578,1.074707,0.4785157,-7.38168,-42.33588,-18.15267
1609459224,832,0.00732422,0.6801758,0.3056641,-6.954198,-20.75573,8.824428
1609459225,0,0.3217773,0.8188477,0.5507813,-14.03817,9.412213,-14.96183
1609459225,259,0.1293945,0.6899415,0.3950195,15.52672,62.0916,-9.022901
1609459225,517,-0.3100586,0.875,0.1835938,-3.473282,66.85497,37.10687
1609459225,773,-0.1625977,1.135742,0.2739258,14.12214,-5.343512,32.84733
1609459226,0,0.09130858,0.9394531,0.04785156,56.06107,-20.93893,-53.8168
1609459226,265,-0.2548828,0.9433594,-0.07958984,17.75573,-35.01527,-26.13741
1609459226,526,0.05957031,1.156738,0.2387696,-71.72519,14.69466,47.58779
1609459226,787,-0.0288086,0.6699219,0.1088867,-26.91603,59.74046,34.41221
1609459227,0,-0.3457031,0.9409181,0.1137695,14.22137,1.625954,-2.717557
1609459227,261,-0.1269531,1.146973,-0.0859375,55.77099,-103.5191,-70.29008
1609459227,526,-0.3642578,0.8354492,-0.1782227,17.38168,-57.12977,-74.91603
1609459227,790,-0.2539063,0.8413085,0.1206055,12.98473,-66.16031,0.1450382
1609459228,0,-0.4750976,0.7734375,0.1425781,19.34351,-25.0916,-9.770992
1609459228,314,-0.5322266,0.8891602,-0.09082031,7.969466,-23.46565,14.80916
1609459228,580,-0.3203125,0.8754884,-0.125,-11.34351,25.62595,4.259542
1609459229,0,-0.1879883,1.166992,-0.0678711,-59.54198,92.41221,52.8626
1609459229,264,-0.190918,0.862793,0.02636719,-69.44275,106.1374,66.29771
1609459229,529,-0.2490234,0.9716797,0.1699219,0.9618321,-0.3740458,15.12214
1609459229,793,0.05810547,1.089355,0.04638672,24.35878,-47.43512,-49.77863
1609459230,0,-0.04589844,0.9614258,0.09179688,-11.75572,-27.06107,-0.5954198
1609459230,265,-0.1850586,1.108398,0.1132813,-78.24428,68.93893,62.67175
1609459230,533,-0.2099609,0.9399415,0.2836914,8.503817,-0.8396946,-19.32061
1609459230,805,0.1040039,1.772949,0.3300781,34.40458,-133.5802,-63.0
1609459231,0,0.1137695,0.5634766,0.234375,-21.20611,73.31298,5.129771
1609459231,272,-0.2905273,-0.02539062,-0.1645508,17.93893,-32.65649,-11.51908
1609459231,539,0.1479492,1.015625,0.1381836,14.72519,-81.45802,2.259542
1609459232,0,-0.1162109,1.615723,0.3574219,-6.351145,-27.23664,15.51145
1609459232,270,-0.02978516,1.533691,-0.02783203,25.74046,-129.1374,-41.87023
1609459232,537,0.3427734,0.4384766,0.1147461,1.89313,-10.54962,-20.45038
1609459232,900,-0.1884766,0.2827148,-0.04101562,-8.732824,-37.83969,-0.2977099
1609459233,0,-0.03271484,1.388672,0.1083984,9.244275,-71.33588,-16.30534
1609459233,262,-0.046875,0.9726563,0.3891602,-9.0,-34.0916,-21.30534
1609459233,510,-0.2612305,0.3466797,-0.01318359,-12.08397,-28.87023,3.519084
1609459233,761,0.02148438,1.35498,0.06054688,9.923664,-80.09161,-34.07634
1609459234,0,-0.05175781,0.71875,0.3364258,-33.38931,12.50382,-5.916031
1609459234,255,-0.1269531,0.3740234,0.00390625,-13.84733,-50.43512,-3.473282
1609459234,508,0.355957,1.489258,0.2739258,30.8855,-110.6794,-60.9542
1609459234,764,0.09863281,0.7270508,0.09375,-3.145038,12.58015,-23.16031
1609459235,0,-0.2646484,0.9326172,0.1567383,-0.5267176,-14.37405,-1.343511
1609459235,254,-0.0493164,1.022949,0.04638672,21.35114,-132.8779,-29.72519
1609459235,509,0.078125,0.9760742,-0.00732422,21.33588,-76.23664,-40.71756
1609459235,763,0.02294922,1.12207,0.07666016,-0.2137404,-44.87023,-13.41221
1609459236,0,-0.0444336,0.9965819,0.07861328,-14.22901,-12.45038,3.160305
1609459236,254,-0.00097656,0.9404297,0.1254883,10.54198,-50.44275,33.64885
1609459236,509,0.2788086,0.8286133,0.1796875,-25.29771,-33.31298,41.32061
1609459237,0,0.5371094,0.9853517,0.3344727,-25.30534,-20.86259,26.87786
1609459237,259,0.5893555,0.8852539,0.3720703,-8.480916,-5.61832,7.19084
1609459237,514,0.5039063,0.753418,0.293457,-3.503817,0.6259542,-16.87023
1609459237,770,0.5244141,0.8920898,0.3139648,9.541985,0.1526718,-16.10687
1609459238,0,0.359375,0.8344727,0.2221679,1.900763,-5.007634,-23.12214
1609459238,254,0.3999024,0.9633789,0.2329102,2.770992,-9.297709,-1.725191
1609459238,511,0.4199219,1.080566,0.2514648,3.824428,13.32061,-24.71756
1609459238,768,0.2368164,0.8833008,0.1835938,-5.656488,41.53435,-26.17557
1609459239,0,0.1010742,0.8730469,0.2104492,-16.23664,76.14503,-6.755725
1609459239,263,-0.1655273,0.9609375,0.1831055,-13.15267,84.85497,22.52672
1609459239,522,-0.1474609,0.8774415,0.3242188,-10.61832,39.9542,21.30534
1609459239,782,-0.1655273,0.9282227,0.2871094,17.0916,33.64122,30.80153
1609459240,0,0.121582,0.9301758,0.06054688,23.0229,22.57252,-10.25954
1609459240,265,-0.08642578,1.054688,-0.02001953,27.41221,34.48092,-28.54962
1609459240,521,-0.2900391,1.128418,-0.06298828,-33.74809,32.50382,-19.98473
1609459240,786,0.1025391,1.081543,0.01855469,-65.61069,57.14504,40.22137
1609459241,0,-0.3046875,0.9067384,0.1313477,-9.274809,0.5114504,32.53435
1609459241,260,0.07714844,1.04248,0.00292969,44.03817,-95.08397,-76.94656
1609459241,522,-0.1074219,1.017578,-0.02539062,19.61069,-17.12214,-43.32825
1609459242,0,-0.1469727,0.7348633,0.1181641,-58.34351,46.61069,63.83969
1609459242,264,-0.1821289,0.8925782,0.1508789,-25.12214,16.33588,26.42748
1609459242,527,0.05078125,1.245117,0.2734375,23.06107,-47.44275,-10.23664
1609459242,793,0.0234375,0.9125977,-0.02392578,37.58015,-45.37404,-65.90076
1609459243,0,-0.1743164,1.115234,0.04980469,-27.9313,20.84733,6.442748
1609459243,268,-0.3891602,0.9277344,0.04199219,-23.81679,11.42748,34.33588
1609459243,537,-0.1904297,1.020996,0.0834961,-24.67175,-131.4733,-1.259542
1609459243,806,0.2446289,0.9936523,0.08300781,3.419847,-80.57252,-42.70229
1609459244,0,0.09765625,0.9824218,0.1757812,11.64122,-30.79389,-13.89313
1609459244,276,-0.2084961,0.9399415,0.1113281,-30.01526,46.28244,-14.84733
1609459244,543,0.07177734,1.309082,0.3300781,1.343511,37.30534,16.59542
1609459244,808,-0.3032227,0.8378906,0.168457,-4.076336,33.94656,23.58015
1609459245,0,0.04785156,0.9887695,-0.04736328,18.14504,-28.63359,-11.29771
1609459245,315,-0.2480469,0.9404297,-0.09912108,10.79389,-32.12214,-32.72519
1609459245,583,-0.340332,0.8310548,0.1342773,-45.77099,-21.25191,22.96183
1609459246,0,-0.2060547,0.8427734,0.00048828,-16.03053,-114.6488,-2.083969
1609459246,271,0.2646484,1.148438,-0.01367188,-13.32061,-93.13741,0.2977099
1609459246,543,0.3105469,1.081055,0.1157227,-25.03817,-84.99236,-12.27481
1609459246,812,0.2792969,0.7924805,0.2788086,-28.09924,-25.94657,-24.00763
1609459247,0,0.34375,0.8041992,0.5068359,-45.12214,-76.85497,24.42748
1609459247,299,0.6191406,0.6518555,0.5263672,-40.83969,-51.1374,-18.34351
1609459247,549,0.5014648,0.527832,0.703125,-127.2519,59.9084,-126.0
1609459247,799,-1.060059,2.112793,1.187012,194.7786,101.9084,-128.5038
1609459248,0,-0.7250977,0.6191406,0.07910156,58.40458,5.717557,-24.73283
1609459248,254,-0.6816406,0.7324218,-0.03173828,-2.458015,15.16794,32.42748
1609459248,513,-0.6186523,0.8413085,0.06689453,-20.09924,-26.58015,37.19847
1609459248,771,-0.2548828,0.9287109,0.1894531,7.022901,-11.46565,3.610687
1609459249,0,-0.3720703,0.9077149,0.1142578,20.23664,3.534351,-21.67175
1609459249,253,-0.5195313,0.8691406,-0.04541016,22.99237,13.22137,-31.51908
1609459249,562,-0.6269531,0.7749023,-0.1625977,17.72519,5.137404,-38.20611
1609459250,0,-0.746582,0.5913086,-0.2583008,10.69466,-2.19084,-35.94656
1609459250,255,-0.8007813,0.4594726,-0.296875,19.59542,8.465649,-31.41985
1609459250,513,-1.013672,0.140625,-0.3701172,6.083969,1.534351,-56.38931
1609459250,764,-1.0625,-0.2851563,-0.3720703,17.43511,37.57252,-68.20611
1609459251,0,-0.7919922,-0.2114258,-0.4892578,10.22901,46.53435,-13.03817
1609459251,253,-0.8476563,-0.1035156,-0.6767578,-2.312977,-0.2977099,12.83206
1609459251,511,-0.7416992,-0.06298828,-0.6079102,-0.6259542,1.816794,14.49618
1609459251,770,-0.7753906,-0.06933594,-0.5932617,-6.740458,-1.519084,-5.221374
1609459252,0,-0.8173828,-0.0366211,-0.6074219,-5.992366,-1.664122,-1.068702
1609459252,260,-0.8115234,-0.05126953,-0.6113281,-2.351145,-0.09160307,0.5725191
1609459252,518,-0.8134766,-0.05810547,-0.5927734,-4.29771,1.816794,-2.068702
1609459252,775,-0.8090819,-0.05859375,-0.6225586,-2.053435,0.4809161,-1.839695
1609459253,0,-0.8310548,-0.07763672,-0.6176758,-3.603053,-1.221374,-1.992366
1609459253,256,-0.8276367,-0.0366211,-0.6201172,-4.198473,-5.145038,1.931297
1609459253,513,-0.8540039,-0.02636719,-0.5844727,-17.17557,-15.1145,23.80916
1609459253,825,-1.000488,0.1176758,-0.6166992,-24.54962,-27.42748,47.7939
1609459254,0,-0.8632813,0.449707,-0.3583984,-17.74046,-24.9542,10.20611
1609459254,261,-0.8535156,0.2202148,-0.2436523,-40.82443,3.328244,19.70992
1609459254,520,-0.9633789,0.3398438,-0.1757812,-32.12977,-1.068702,22.59542
1609459254,781,-0.6479492,0.6948242,-0.03173828,-22.51908,-39.74809,46.19848
1609459255,0,-0.4194336,0.9204102,0.1508789,-3.854962,-10.81679,24.48855
1609459255,263,-0.5087891,0.875,0.0678711,-12.90076,5.053435,22.45038
1609459255,526,-0.4433593,0.9257813,0.1625977,-18.32061,8.557252,21.83206
1609459256,0,-0.3198242,0.9238282,0.1816406,-2.022901,6.099236,3.641222
1609459256,263,-0.2265625,0.9033203,0.1928711,-2.839695,-7.687023,1.992366
1609459256,528,-0.2783203,0.925293,0.1958008,4.114504,-5.923664,2.59542
1609459256,793,-0.28125,0.9697266,0.1757812,-0.1374046,0.3435115,5.061069
1609459257,0,-0.199707,0.9194336,0.1977539,2.343511,-11.12214,3.183206
1609459257,263,-0.4931641,0.9599609,0.08642578,-8.091603,-3.198473,-13.91603
1609459257,526,-0.378418,0.9428711,0.112793,-44.83206,-33.19084,-10.48855
1609459257,788,-0.1962891,0.6113281,0.3496094,-73.1832,-104.2061,-7.847328
1609459258,0,0.046875,0.7651367,0.6586914,-43.16031,50.69466,69.43511
1609459258,266,-0.06298828,0.7509766,0.6728516,22.96947,25.10687,15.20611
1609459258,534,0.02392578,0.7856445,0.605957,18.0916,3.877863,20.63359
1609459258,802,0.01025391,0.7514649,0.4321289,2.396947,24.84733,32.67939
1609459259,0,-0.00048828,0.7685547,0.4516602,-9.145039,37.20611,13.96183
1609459259,267,-0.03417969,0.7871094,0.4428711,0.0,30.44275,-1.832061
1609459259,535,-0.05615234,0.8540039,0.402832,9.305344,39.19847,19.41221
1609459260,0,-0.1206055,0.9467773,0.309082,12.9542,9.465649,17.42748
1609459260,269,-0.1010742,0.9306641,0.2006836,16.83969,-8.21374,6.641222
1609459260,542,0.02246094,0.9833983,0.07763672,23.74809,-15.93893,-14.44275
1609459260,811,0.02001953,1.09375,-0.05957031,26.67939,2.412214,-30.21374
1609459261,0,-0.05322266,1.04541,-0.06640625,-19.61069,15.28244,6.839694
1609459261,269,-0.2197266,0.9858398,0.04638672,-54.33588,46.03053,16.13741
1609459261,535,-0.1401367,0.8588867,0.2124023,-22.22901,39.77099,7.778626
1609459261,804,-0.1445313,0.8828125,0.2646484,-0.2977099,-18.30534,-2.229008
1609459262,0,-0.1542969,0.9614258,0.1494141,5.961833,-26.77099,15.51908
1609459262,298,0.2231446,1.246582,0.2797852,4.175572,-44.51908,7.671755
1609459262,548,0.2392578,0.9799805,0.1132813,8.503817,-51.24427,-29.54198
1609459263,0,0.1577148,1.006836,0.03222656,13.96183,-57.34351,-27.59542
1609459263,253,0.07177734,1.339844,0.04785156,-9.755725,-29.16794,-17.66412
1609459263,505,-0.03515625,0.9858398,0.171875,3.435115,-64.29771,-13.61069
1609459263,757,0.03808594,1.032227,0.01513672,14.22137,-111.9847,-22.40458
1609459264,0,-0.04638672,1.067383,0.00195312,1.587786,-65.08397,-4.229008
1609459264,266,0.03320312,1.056641,-0.06396484,-3.946565,-80.69466,-3.862595
1609459264,521,0.1474609,0.9951172,-0.03125,3.664122,-60.26717,-20.86259
1609459264,782,-0.01708984,0.9536133,-0.0625,-10.0458,-29.51908,-23.86259
1609459265,0,-0.1552734,0.6831055,0.2456054,-39.9313,-64.03817,1.419847
1609459265,253,-0.2397461,0.949707,0.1738281,-6.709924,-25.72519,17.94657
1609459265,506,-0.1147461,1.123535,0.09179688,32.67176,-51.72519,-7.938931
1609459265,760,0.1870117,0.9052734,-0.02734375,28.53435,-21.80916,-37.15267
1609459266,0,-0.03320312,1.131348,0.00732422,-28.56489,-23.73283,-3.480916
1609459266,259,-0.07128906,0.9233398,0.1586914,-31.07634,33.66412,14.75572
1609459266,570,0.1591797,1.249512,0.06982422,21.48092,-65.96183,-41.03817
1609459266,828,0.00683594,0.9541017,-0.02929688,-17.29771,24.61832,2.671756
1609459267,0,-0.1782227,0.6000977,-0.137207,-102.9389,32.35878,24.44275
1609459267,258,0.152832,1.059082,0.7607422,-108.0611,12.32824,-10.42748
1609459267,523,-0.2954102,-0.5371094,-0.3618164,-74.33588,141.3969,-57.37404
1609459267,785,-1.608398,-1.860352,0.01416016,-0.5954198,67.85497,-147.313
1609459268,0,-0.6953125,-1.080078,-0.3291016,-40.31298,96.65649,-31.16794
1609459268,261,-0.8613282,-0.4946289,-0.05175781,30.87786,3.213741,43.69466
1609459268,519,-0.7211915,-0.3417969,0.2089844,7.572519,-13.69466,2.984733
1609459269,0,-0.8647461,-0.4589843,-0.01513672,-12.24428,20.36641,0.4427481
1609459269,258,-0.8901367,-0.4521484,-0.05615234,-9.160305,2.70229,4.122138
1609459269,519,-0.8754884,-0.4482422,-0.03125,-0.389313,-0.5648855,3.648855
1609459269,779,-0.8994141,-0.3696289,-0.02148438,-5.480916,-2.793893,13.01527
1609459270,0,-0.9296875,-0.3637695,-0.02050781,-5.496184,-5.442748,5.961833
1609459270,264,-1.004395,-0.3276367,-0.07177734,-14.39695,-15.61069,25.30534
1609459270,526,-0.8022461,-0.02539062,0.1176758,-29.8855,-14.76336,59.67939
1609459270,843,-0.9370116,0.4047852,0.04101562,-19.32825,-3.946565,34.79389
1609459271,0,-0.8823242,0.3867188,0.04882812,-18.91603,3.732824,25.56489
1609459271,262,-0.8984375,0.4379883,0.06445312,-35.0458,26.27481,12.61832
1609459271,523,-0.9560548,0.3085938,0.0444336,-42.58015,4.320611,18.1145
1609459271,782,-0.9218751,0.3925781,0.1474609,-14.80916,-1.312977,28.35114
1609459272,0,-0.7001953,0.6376953,0.1606445,-2.847328,16.70229,36.74046
1609459272,263,-0.7211915,0.8320313,-0.06298828,-14.30534,-10.31298,32.48855
1609459272,528,-0.4140625,0.8139649,0.144043,-8.519084,-16.93893,7.450381
1609459273,0,-0.3564453,0.9580078,0.296875,-83.96947,-24.45802,66.08397
1609459273,266,-0.04003906,0.8745116,0.6865234,-26.67939,36.23664,22.16031
1609459273,534,-0.171875,0.8432616,0.7260742,-0.3587786,-5.694657,64.58015
1609459273,799,0.3173828,0.9101563,0.737793,22.75572,2.549618,2.160305
1609459274,0,0.1274414,0.7949218,0.3964844,26.03817,65.64122,28.74046
1609459274,267,0.0209961,0.8891602,0.3608398,3.10687,46.15267,24.58015
1609459274,538,0.01269531,0.7944336,0.3359375,-1.068702,47.38168,20.22901
1609459274,811,-0.1499023,0.8916017,0.269043,-0.351145,73.52672,-4.580153
1609459275,0,-0.2285156,0.8369141,0.3144531,-11.42748,-15.31298,-19.85496
1609459275,268,-0.1269531,1.001465,0.3876953,25.00763,-20.32061,13.47328
1609459275,542,-0.1884766,1.000977,0.1772461,16.40458,-18.29008,35.12977
1609459276,0,0.1630859,0.9755859,0.2163086,12.45038,13.76336,6.038167
1609459276,268,0.1606445,0.9702149,0.09667969,13.69466,-10.32824,-39.13741
1609459276,539,0.01757812,0.9711915,-0.01660156,34.10687,4.870229,-23.37405
1609459276,848,-0.1938477,0.9331055,0.07373047,-75.66412,39.23664,27.14504
1609459277,0,-0.1411133,0.8505859,0.140625,-18.1145,42.13741,33.51908
1609459277,250,-0.1201172,0.9555664,0.1435547,5.267176,-23.86259,-1.48855
1609459277,498,-0.07519531,1.101563,0.144043,0.9083969,-55.01527,1.236641
1609459277,748,0.3056641,0.9477539,0.1860352,14.29008,-46.14504,-22.61832
1609459278,0,0.0678711,0.9760742,0.02050781,-3.458015,5.305344,-3.435115
1609459278,256,0.06542969,0.9960938,0.00585938,-28.33588,13.14504,10.91603
1609459278,513,0.03271484,0.9570313,0.3710938,-32.73283,34.70992,-20.65649
1609459278,768,-0.449707,0.7441406,0.04296875,36.22901,34.41221,-106.8931
1609459279,0,-0.3735352,0.8730469,0.08935547,15.73282,-17.05343,82.39695
1609459279,300,-0.03027344,1.098145,0.1582031,-10.67176,-13.54198,27.27481
1609459279,561,-0.2226562,1.100098,-0.06640625,38.93893,-3.40458,-139.6641
1609459279,814,-0.3891602,0.9331055,0.06640625,-34.54962,2.160305,-16.45038
1609459280,0,-0.3618164,0.9335938,0.1132813,-66.54198,33.35115,119.8321
1609459280,256,-0.2851563,0.9516602,0.08154297,-6.458015,14.31298,31.40458
1609459280,516,-0.1601563,1.212402,0.07324219,32.51908,-58.25954,-36.19847
1609459281,0,-0.1772461,0.9921875,0.0234375,58.71756,-20.32061,-79.31298
1609459281,260,-0.3510742,0.8920898,-0.1342773,-17.03817,14.75572,4.725191
1609459281,522,-0.07714844,1.039063,0.1196289,-69.16031,42.85496,93.23664
1609459281,776,-0.2133789,0.9204102,0.0625,-20.77099,18.58779,32.54962
1609459282,0,0.05273438,1.125488,0.2900391,41.26717,-47.17557,-53.05344
1609459282,259,-0.06396484,0.9575195,-0.06738281,51.24427,-18.59542,-80.38168
1609459282,521,-0.2265625,1.104004,-0.04296875,-46.9313,29.44275,14.94656
1609459282,778,-0.175293,0.8574218,0.1005859,-52.39695,73.25954,91.21375
1609459283,0,-0.2099609,0.9702149,0.1152344,-2.51145,-1.435114,13.58015
1609459283,260,0.05957031,1.050293,0.1298828,51.69466,-44.64122,-65.79389
1609459283,567,-0.3046875,0.9091797,-0.06103516,2.961832,-7.908397,-60.29008
1609459283,821,-0.284668,1.121094,0.05664062,-71.94656,3.961832,55.77099
1609459284,0,-0.2773438,0.8784181,0.0390625,-46.83969,31.35114,85.98473
1609459284,265,-0.190918,1.114746,0.07226562,24.46565,-47.16794,-28.0
1609459284,528,0.00830078,1.108398,-0.1005859,60.52672,-75.25191,-120.687
1609459284,792,-0.2631836,0.7919922,-0.08300781,-9.763359,-2.114504,-5.671755
1609459285,0,-0.1811523,0.9619141,0.05615234,-63.24427,47.30534,95.85496
1609459285,260,-0.159668,0.9042969,0.05517578,-9.122137,-12.89313,26.93893
1609459285,521,-0.09619142,1.336426,-0.01074219,42.22137,-66.83969,-42.48092
1609459286,0,-0.01171875,1.002441,-0.0546875,39.05344,-36.64885,-91.46566
1609459286,261,-0.2915039,0.9360351,-0.09277344,-11.75572,-2.259542,6.748092
1609459286,530,-0.1469727,1.10498,0.06982422,-35.43512,35.41221,76.96947
1609459286,795,-0.1679688,0.9399415,0.07763672,-7.282443,-26.99237,4.740458
1609459287,0,-0.07128906,1.129395,0.07617188,27.35878,-67.38168,-32.21374
1609459287,268,-0.03173828,0.9731445,0.04101562,29.45038,-11.63359,-46.2061
1609459287,532,-0.2797852,1.046875,-0.09033203,-3.351145,0.1526718,-11.14504
1609459287,843,-0.1308594,1.144531,0.03027344,-25.0687,42.65649,39.01527
1609459288,0,-0.1870117,0.9331055,0.09179688,-21.28244,-32.58779,28.96947
1609459288,267,-0.2270508,1.216309,0.00097656,19.67175,-80.69466,-16.89313
1609459288,536,0.1352539,1.12207,-0.0522461,45.05344,-60.87023,-81.14503
1609459288,803,-0.1933594,0.9379884,-0.0571289,20.0916,-32.87023,-3.671756
1609459289,0,-0.1191406,1.362305,-0.04248047,-30.49618,45.96947,40.41985
1609459289,274,-0.2509766,0.9829102,0.06738281,-35.67176,29.40458,33.03817
1609459289,542,-0.1054688,0.9482422,0.1186523,6.70229,-45.64885,-14.74809
1609459290,0,0.04736328,1.104004,0.01611328,35.61069,-56.30534,-25.99237
1609459290,267,0.08105469,1.055176,-0.04736328,19.68702,-38.74809,-20.22137
1609459290,537,-0.0678711,1.093262,-0.03125,-7.374046,-19.74046,11.34351
1609459290,809,-0.00488281,0.8930664,0.03613281,-37.92366,29.35114,-7.183207
1609459291,0,-0.2036133,0.9516602,0.06542969,-6.465649,-0.4885496,7.442748
1609459291,308,-0.2167969,0.9980469,0.0649414,13.05344,-61.32061,0.9083969
1609459291,563,0.1035156,1.068359,0.03759766,22.75572,-47.71756,-2.435115
1609459291,812,0.06103516,1.03418,-0.0678711,8.709924,-22.41985,3.717557
1609459292,0,-0.03173828,0.9902344,-0.1835938,-1.648855,5.931298,0.8625955
1609459292,251,-0.03320312,1.038086,-0.2001953,-11.43511,-13.55725,-7.534351
1609459292,503,-0.01123047,1.065918,-0.02539062,-41.34351,-26.73283,-13.96183
1609459293,0,-0.05908203,0.9189452,0.3261719,-28.9084,6.030534,-17.29008
1609459293,250,-0.2885742,0.8662109,0.2084961,-13.76336,-10.80916,-10.54198
1609459293,508,-0.3852539,0.8144531,0.1274414,7.717557,-41.64122,6.473282
1609459293,762,0.203125,1.020996,0.253418,30.36641,-33.52672,12.9542
1609459294,0,0.0678711,0.9345703,0.02783203,27.22137,7.19084,-8.473283
1609459294,254,-0.08300781,1.020508,-0.05517578,-6.78626,18.13741,-4.740458
1609459294,505,-0.08154297,1.156738,0.0756836,-29.24428,33.29771,-5.015267
1609459294,761,-0.144043,0.9248048,0.01513672,-21.73283,-27.82443,17.87786
1609459295,0,-0.1181641,0.9423828,0.1005859,-4.717557,-66.9771,3.305344
1609459295,266,0.1850586,1.053711,0.01464844,20.0229,-100.7786,-43.63359
1609459295,527,-0.03125,0.9467773,-0.1132813,25.49618,4.938931,-31.30534
1609459295,784,-0.2392578,1.080566,-0.1313477,-36.49618,22.12977,13.08397
1609459296,0,0.08154297,0.8237305,0.05664062,-55.69466,36.36641,29.35114
1609459296,304,-0.1538086,0.8881836,0.1289063,2.862595,-28.92366,6.251908
1609459296,566,0.07958984,1.111816,0.1621094,37.45802,-83.0229,-48.35878
1609459296,828,0.05273438,1.001465,-0.00292969,28.06107,-19.39695,-52.89313
1609459297,0,-0.171875,1.056152,-0.06347656,-49.71756,38.58779,33.42748
1609459297,261,-0.1206055,0.8188477,0.144043,-70.87786,70.94656,41.54198
1609459297,521,-0.2602539,0.8491211,0.1577148,-1.740458,7.870229,23.07634
1609459297,779,-0.09277344,1.560547,0.1987305,51.46565,-81.77863,-92.09161
1609459298,0,0.3017578,0.1298828,0.09472656,-19.61832,4.320611,-2.480916
1609459298,262,-0.46875,0.7924805,-0.03613281,-36.34351,74.76336,67.229
1609459298,526,0.07177734,2.197266,0.3935547,49.03817,-59.60305,-91.66413
1609459299,0,-0.0600586,0.6547852,0.1787109,-30.16031,49.36642,35.67939
1609459299,261,-0.2275391,0.3603516,-0.03564453,7.007634,21.06107,34.66412
1609459299,524,0.2441406,2.254883,0.5400391,63.09923,-123.313,-67.99236
1609459299,795,0.00244141,1.850098,0.4995117,-23.16031,-8.732824,43.55725
1609459300,0,-0.105957,0.9780273,-0.2573242,50.63358,-106.4504,-80.37405
1609459300,262,0.3862305,0.4775391,0.06103516,-26.44275,50.51145,38.09924
1609459300,576,-0.4165039,0.3173828,-0.2016602,-4.358778,16.87786,36.43512
1609459300,840,0.4121093,1.715332,0.3447266,2.19084,-93.65649,-36.40458
1609459301,0,-0.07617188,2.038086,0.5874023,-64.16794,83.84733,50.49618
1609459301,265,-0.2714844,0.4775391,-0.1582031,28.41221,-95.29771,-28.54962
1609459301,530,0.2890625,0.3261719,0.0546875,-1.625954,-48.68702,-38.49618
1609459301,795,-0.265625,1.442383,0.2875977,-56.56488,118.5343,66.64122
1609459302,0,0.2158203,1.984863,0.3554688,54.54198,-110.6794,-52.46565
1609459302,264,0.0859375,0.5454102,0.06640625,6.549619,-1.29771,-29.89313
1609459302,537,0.1655273,1.26709,0.4345703,-32.92366,-11.22901,18.16794
1609459303,0,-0.2182617,0.4057617,-0.0805664,30.17557,-105.6107,-55.07634
1609459303,268,0.1220703,0.8325195,-0.05371094,31.06107,-114.2595,-23.55725
1609459303,538,0.2958984,1.427246,0.2250977,-15.61832,-72.0229,-6.442748
1609459303,810,-0.1860352,0.8710938,-0.00488281,-11.61069,-131.7557,-12.60305
1609459304,0,0.6347656,1.145996,0.07080078,-14.85496,-107.7328,-32.46565
1609459304,269,0.2973633,0.8554687,0.2329102,-35.73283,-96.59543,-25.48855
1609459304,538,0.4086914,0.7836915,0.3618164,-55.74809,-65.92367,-30.19847
1609459304,859,0.3417969,0.5634766,0.3354492,-49.01527,-65.62595,-9.480916
1609459305,0,0.6713867,0.6679688,0.4829102,-40.31298,-71.96947,-9.221375
1609459305,268,0.8046875,0.6064453,0.4399414,-11.25191,-34.49618,-35.74809
1609459305,539,0.8574218,0.684082,0.4731445,-50.9771,68.9771,-77.17558
1609459306,0,-0.4365234,0.8232422,0.375,32.68702,17.01527,-94.35114
1609459306,251,-0.4365234,0.8554687,0.2509766,-1.458015,53.73283,18.86259
1609459306,499,-0.5566406,1.111816,0.4897461,-45.74046,16.20611,60.99237
1609459306,753,0.1499023,0.8706055,0.4799805,-2.977099,-22.83969,16.1145
1609459307,0,-0.03076172,0.9199218,0.5014648,8.961832,8.938931,-23.57252
1609459307,254,-0.1660156,0.9399415,0.2451172,27.38931,7.183207,-24.94657
1609459307,510,-0.2944336,0.9438477,0.09082031,15.57252,1.10687,-19.76336
1609459307,763,-0.3325195,0.9375,0.0390625,19.38168,7.954198,-25.46565
1609459308,0,-0.4672852,0.8808594,-0.05664062,26.32825,-4.954198,-35.65649
1609459308,252,-0.6118164,0.7646484,-0.2119141,27.78626,-5.59542,-38.77099
1609459308,507,-0.5981445,0.6875,-0.1508789,10.19084,-26.08397,-61.22901
1609459308,766,-0.6899415,0.5200195,0.03173828,21.96183,-31.38168,-76.16031
1609459309,0,-0.9545898,-0.1166992,-0.2558594,12.20611,30.1145,-45.9771
1609459309,256,-0.8994141,0.01904297,-0.284668,-11.84733,12.96183,0.1450382
1609459309,508,-0.9946289,0.01660156,-0.4199219,-12.1374,19.28244,9.312977
1609459309,762,-0.8193359,0.0258789,-0.4667969,-1.114504,-1.206107,1.946565
1609459310,0,-0.8823242,0.04980469,-0.3891602,1.396947,-3.061069,1.045802
1609459310,259,-0.9013672,0.03466797,-0.4243164,-4.40458,1.549618,-1.717557
1609459310,527,-0.9492187,0.03515625,-0.4433593,-2.0,3.908397,-0.1603053
1609459310,786,-0.8964844,0.04199219,-0.4560547,-2.938931,1.21374,-1.045802
1609459311,0,-0.8930664,0.04785156,-0.4487305,-4.328244,0.09923664,0.351145
1609459311,259,-0.8979492,0.0522461,-0.4194336,-1.534351,0.01526718,-2.679389
1609459311,519,-0.9121094,0.0415039,-0.4238281,-6.38168,-2.679389,1.221374
1609459312,0,-0.9169922,0.06738281,-0.4355469,1.381679,0.8396946,-2.137405
1609459312,259,-0.9257813,0.0288086,-0.4287109,-2.29771,0.4656488,-2.229008
1609459312,519,-1.111328,-0.01367188,-0.5170898,-17.54962,-52.0916,31.12977
1609459312,781,-0.949707,0.3916016,-0.09912108,-2.824428,-18.12214,30.20611
1609459313,0,-0.8886718,0.5288086,-0.1210938,-17.14504,-10.0916,24.51908
1609459313,310,-0.6303711,0.4243164,0.01074219,-21.64886,-26.39695,39.20611
1609459313,575,-0.777832,0.7470703,0.01855469,12.67939,18.94657,27.45038
1609459313,835,-0.6616211,0.730957,-0.04003906,-11.0229,14.75572,22.76336
1609459314,0,-0.4384766,0.9624023,0.08496094,-12.35878,38.12214,27.55725
1609459314,260,-0.4399414,0.9384766,-0.01513672,-8.450381,-11.30534,23.35114
1609459314,520,-0.269043,0.9487305,0.01123047,-9.954199,-0.2442748,-0.1755725
1609459314,784,-0.4165039,0.9760742,0.06933594,-4.633588,-1.022901,2.251908
1609459315,0,-0.3535156,0.956543,0.07128906,-13.20611,5.221374,8.984733
1609459315,265,-0.3500976,0.9589844,0.1010742,-7.717557,-7.27481,1.305344
1609459315,528,-0.3168945,0.9399415,0.1005859,-21.33588,-1.977099,14.38168
1609459315,792,-0.1738281,0.9262695,0.25,-11.47328,-8.091603,2.183206
1609459316,0,-0.2265625,0.9130859,0.2583008,16.57252,16.9313,-32.54198
1609459316,266,-0.4951172,0.9013672,-0.01025391,31.12214,22.73283,-46.2061
1609459316,531,-0.6210938,0.7744141,-0.08203125,15.35878,2.099237,-39.64122
1609459317,0,-0.6958008,0.753418,-0.1474609,15.61069,-3.870229,-44.27481
1609459317,271,-0.7373047,0.3276367,-0.1743164,19.59542,32.23664,-72.45038
1609459317,587,-0.7338867,0.04589844,-0.5864258,18.01527,29.9771,-112.0916
1609459317,852,-0.5258789,-0.4116211,-0.6958008,-30.29771,38.61832,-48.83969
1609459318,0,-0.53125,-0.3354492,-0.8637695,-20.74046,2.473282,2.80916
1609459318,266,-0.5615234,-0.3110352,-0.8452149,-0.6259542,-1.183206,3.839695
1609459318,531,-0.5239258,-0.3266602,-0.8349609,-4.549618,-0.9312977,-0.740458
1609459318,798,-0.5800781,-0.3100586,-0.8261718,-1.320611,-1.145038,1.557252
1609459319,0,-0.5532227,-0.3046875,-0.8383789,-8.137404,0.9236641,-0.4503817
1609459319,273,-0.5571289,-0.2983398,-0.8115234,-0.6641222,0.5954198,-0.1603053
1609459319,544,-0.5585938,-0.277832,-0.8422851,3.358778,-5.290076,1.335878
1609459320,0,-0.5732422,-0.3134766,-0.8251952,-0.5648855,-0.8091603,0.6641222
1609459320,269,-0.5683594,-0.3520508,-0.8188477,4.435114,-11.46565,7.984733
1609459320,572,-0.6845703,-0.2885742,-0.7636718,9.946565,-21.45802,46.16793
1609459320,821,-0.8569336,-0.0727539,-0.5991211,2.603053,-54.35878,81.40458
1609459321,0,-0.9106445,0.2954102,-0.4448242,-6.541985,-37.70992,45.0
1609459321,251,-0.7011718,0.5244141,-0.2915039,-16.89313,-6.114504,16.90076
1609459321,506,-0.7670898,0.6630859,-0.2636719,-18.39695,-21.84733,41.74809
1609459321,804,-0.7670898,0.5126953,-0.121582,-13.38168,22.09924,21.36641
1609459322,0,-0.7172851,0.6435547,-0.1831055,-4.526718,9.755725,24.41221
1609459322,249,-0.6279297,0.7705078,-0.1977539,-11.40458,7.175572,32.63359
1609459322,504,-0.5424805,0.9726563,-0.171875,-17.07634,7.832061,40.30534
1609459322,757,-0.3505859,0.980957,-0.04248047,-0.5877862,3.503817,12.32824
1609459323,0,-0.3535156,0.9272461,-0.07177734,-8.022901,-2.045802,2.312977
1609459323,255,-0.3364258,0.9379884,-0.05029297,6.114504,2.954198,-20.83206
1609459323,507,-0.4750976,0.9130859,-0.1333008,3.335878,5.755725,-9.541985
1609459323,760,-0.4643555,0.9287109,-0.06835938,-27.25954,45.66412,-15.79389
1609459324,0,-0.3842774,0.7773438,-0.07861328,-20.27481,9.19084,-13.85496
1609459324,255,-0.6201172,0.887207,-0.1308594,-11.83206,43.98473,-67.61069
1609459324,510,-0.7504883,0.5170898,-0.371582,15.42748,35.0916,-48.60305
1609459324,769,-0.7841797,0.3554688,-0.4633789,36.41221,19.61832,-23.38931
1609459325,0,-0.7705078,0.06298828,-0.6000977,74.42748,24.48092,-26.62595
1609459325,262,-0.9858398,-0.5136719,-0.8095703,43.27481,54.53435,-39.60305
1609459325,518,-0.6186523,-0.4536133,-0.8769531,5.954198,8.839695,0.740458
1609459326,0,-0.5932617,-0.4086914,-0.7988282,-39.23664,-49.41221,51.49618
1609459326,263,-0.8149415,-0.04589844,-0.8173828,-8.740458,6.641222,31.79389
1609459326,518,-0.7109375,-0.07226562,-0.7529297,1.343511,-7.549619,1.549618
1609459326,776,-0.7412109,-0.0336914,-0.71875,-1.366412,-4.007634,6.419847
1609459327,0,-0.7480469,-0.01708984,-0.6816406,-0.1984733,-5.51145,-2.015267
1609459327,258,-0.7543945,-0.00732422,-0.684082,-0.2671756,-1.10687,3.10687
1609459327,522,-0.7695313,-0.01074219,-0.6835938,-6.129771,1.526718,0.3129771
1609459327,782,-0.8710938,-0.03173828,-0.7055664,-31.61069,-34.83206,18.20611
1609459328,0,-0.8125,0.1904297,-0.4824219,-11.44275,-31.96947,22.0687
1609459328,260,-0.7802734,0.3286133,-0.3354492,-21.24427,-20.63359,28.86259
1609459328,525,-1.005371,0.2265625,-0.2587891,-32.68702,-19.10687,39.80153
1609459328,784,-0.777832,0.3862305,-0.08007812,-16.9771,-3.687023,26.80916
1609459329,0,-0.7280273,0.5498047,-0.0366211,-4.801527,20.35114,25.98474
1609459329,265,-0.5249023,0.7021484,-0.1640625,-28.93893,27.78626,30.51908
1609459329,528,-0.3862305,0.9199218,-0.2421875,-7.030534,-58.35115,44.38168
1609459329,792,-0.2885742,0.9238282,0.01611328,-41.41221,3.603053,43.03053
1609459330,0,0.03173828,1.070313,0.02783203,-4.526718,-21.48092,87.8626
1609459330,265,0.3603516,0.8901367,0.2670898,13.46565,30.29008,41.48092
1609459330,528,0.6069336,0.9047851,0.09912108,51.34351,-3.977099,10.58015
1609459331,0,0.359375,1.053223,0.1479492,-16.77863,70.39695,32.0
1609459331,266,0.3935547,1.023926,0.1962891,-1.755725,58.72519,-17.9542
1609459331,536,0.262207,0.6625977,0.1992188,-34.91603,65.39695,-17.54198
1609459331,805,-0.03955078,0.8398438,0.2299804,1.396947,50.0,39.19847
1609459332,0,-0.1098633,0.9614258,0.2231446,37.16031,-33.83206,6.908397
1609459332,265,0.1499023,0.9980469,0.02929688,38.03817,-26.80153,-50.05344
1609459332,540,-0.06738281,1.062012,-0.168457,30.96947,4.694656,-55.59542
1609459332,809,-0.2636719,1.021484,-0.2480469,-62.29008,21.12214,15.47328
1609459333,0,-0.09667969,0.8359375,0.2070312,-46.22901,47.40458,45.20611
1609459333,273,-0.06738281,0.8989258,0.1796875,-3.664122,-8.366412,1.244275
1609459333,540,-0.00244141,1.029297,0.1435547,8.61832,-69.48855,-16.58779
1609459334,0,0.2148438,0.9296875,0.2231446,15.42748,-24.61832,-22.66412
1609459334,276,0.00683594,1.003906,-0.04345703,33.40458,-41.27481,-47.01527
1609459334,598,-0.1918945,1.294434,-0.02246094,-55.17557,42.10687,29.58779
1609459334,870,-0.2128906,0.9057616,0.04638672,-34.64122,15.07633,48.9313
1609459335,0,0.05664062,1.063477,0.05761719,-6.053435,-121.3359,-20.73282
1609459335,247,0.1821289,1.016602,-0.1298828,22.92366,-124.7405,-66.9771
1609459335,497,0.1381836,1.066895,-0.1577148,43.38168,-106.6183,-49.64885
1609459335,749,-0.09326172,1.091309,0.03417969,-35.29008,-19.25191,25.63359
1609459336,0,-0.08203125,0.9560548,0.04833984,-40.93893,-49.31298,47.90076
1609459336,256,-0.03320312,0.9863282,0.03173828,-3.099237,-90.22137,-31.12977
1609459336,507,0.1274414,1.15625,-0.1254883,21.55725,-132.5725,-59.1374
1609459336,765,0.01123047,1.002441,-0.1298828,38.8855,-78.58778,-33.9313
1609459337,0,-0.1064453,1.269531,0.03076172,-51.53435,29.67939,38.35878
1609459337,253,-0.1801758,0.8349609,0.06347656,-33.44275,-6.732824,42.19847
1609459337,513,-0.1132813,0.9008789,0.09619142,-5.709924,-24.23664,-11.23664
1609459338,0,0.09472656,1.143555,0.1079102,7.29771,-126.8168,-36.65649
1609459338,256,0.01660156,0.9462891,-0.0390625,32.29771,-63.32825,-55.42748
1609459338,515,-0.1064453,0.9506836,0.1357422,-46.29771,-38.12214,39.40458
1609459338,817,-0.1796875,0.9384766,0.09472656,-21.87786,-33.51908,10.56489
1609459339,0,0.4946289,0.9716797,0.2485352,-35.67176,-106.2137,-41.86259
1609459339,251,0.4506836,0.8134766,0.2983398,14.70992,-23.56489,-21.61832
1609459339,510,-0.0258789,1.027344,0.09423828,30.15267,69.44275,-41.32061
1609459339,769,-0.3935547,0.8476563,-0.1845703,-43.36642,44.61069,-18.52672
1609459340,0,0.1137695,0.7055664,0.4648438,-120.6412,32.24427,20.58779
1609459340,261,0.02490234,1.105469,0.690918,-125.3359,33.1145,42.67939
1609459340,521,-0.1582031,-0.9072266,0.1069336,-76.56489,239.3053,-89.229
1609459340,778,-0.08837892,-0.4467774,0.5913086,-51.0458,-22.78626,-75.82442
1609459341,0,-1.04541,-0.6757813,-0.300293,23.41221,38.22901,5.992366
1609459341,256,-0.9692384,-0.3276367,0.0415039,47.33588,-63.34351,19.0687
1609459341,520,-0.7324218,-0.2319336,0.4291992,12.40458,-39.75573,15.77863
1609459341,785,-0.7705078,-0.2265625,0.4555664,-16.10687,23.80916,9.221375
1609459342,0,-0.9233398,-0.1796875,0.2558594,-1.847328,6.755725,12.98473
1609459342,263,-0.9858398,-0.1884766,0.1674805,-24.05343,-6.251908,28.9771
1609459342,523,-1.020508,-0.05664062,0.09960938,-13.30534,23.26717,34.0229
1609459343,0,-0.9941406,-0.05126953,0.08251953,-26.70992,36.66412,22.16794
1609459343,259,-1.031738,0.05029297,0.00976562,-28.44275,32.9084,14.77863
1609459343,521,-0.9208983,0.2841797,-0.06884766,-55.41221,27.23664,23.63359
1609459343,786,-0.9624023,0.4125976,-0.1254883,-60.44275,-0.8396946,32.35878
1609459344,0,-0.7128906,0.5878906,0.1552734,-10.9084,4.740458,24.9084
1609459344,264,-0.7729492,0.6113281,0.02783203,-3.458015,9.992367,28.38931
1609459344,529,-0.6430664,0.6376953,0.07666016,-20.8855,-9.526717,31.83969
1609459344,794,-0.4799805,0.8603517,0.2431641,-44.9313,-33.64885,28.49618
1609459345,0,-0.3637695,0.715332,0.625,-49.70992,-20.10687,59.12214
1609459345,265,-0.07617188,0.9907227,0.8134766,23.41221,63.08397,62.15267
1609459345,528,0.04882812,1.042969,0.4672852,-11.41985,40.34351,55.92366
1609459345,793,0.1103516,1.050293,0.4404297,-1.832061,43.14504,54.13741
1609459346,0,0.2133789,0.6767578,0.3300781,-2.534351,41.30534,14.60305
1609459346,268,0.00683594,0.7768555,0.3681641,-2.51145,78.93893,-11.41985
1609459346,538,-0.1738281,0.8422851,0.340332,-3.717557,44.72519,24.23664
1609459347,0,-0.2832031,0.9492187,0.1899414,3.068702,-12.0229,28.67175
1609459347,314,0.2006836,0.9775391,0.1816406,74.70992,-27.74809,-54.26717
1609459347,584,-0.00292969,1.108398,-0.0493164,35.51145,25.76336,-24.58015
1609459347,852,0.02294922,1.072266,0.3085938,-94.70229,-17.25191,22.74046
1609459348,0,0.02636719,0.7553711,0.175293,-40.64122,74.96947,60.41985
1609459348,270,-0.08740233,0.9804687,0.1816406,0.519084,1.083969,22.26717
1609459348,544,0.1293945,0.9682616,0.1875,53.73283,-62.21374,-96.25191
1609459348,814,0.04541016,0.9760742,0.02636719,43.78626,-14.18321,-54.17557
1609459349,0,-0.1186523,0.7988282,0.3266602,-72.09924,1.137405,58.54198
1609459349,271,-0.1523438,0.7426758,0.1586914,-30.86259,49.27481,51.80916
1609459349,569,0.06298828,0.8403319,0.3256836,32.44275,-28.68702,-47.20611
1609459350,0,-0.09326172,0.9335938,-0.0727539,70.70992,-41.58015,-79.24428
1609459350,252,-0.1591797,1.35791,-0.03027344,-57.1374,13.69466,37.50382
1609459350,504,-0.2314453,0.8134766,0.0336914,-69.08397,97.87786,108.1221
1609459350,759,-0.2412109,1.117188,0.2177734,10.07634,-12.12214,1.862595
1609459351,0,0.00341797,1.033203,0.02148438,104.3435,-46.9771,-124.7481
1609459351,253,-0.3334961,1.016113,-0.0834961,-26.15267,-16.22137,-38.65649
1609459351,557,-0.1289063,0.8637695,0.2368164,-52.36641,64.48855,115.1069
1609459351,808,0.01464844,1.265137,0.3105469,-12.51145,-15.70992,14.43511
1609459352,0,0.2368164,0.8920898,0.3046875,32.19084,-20.41221,-86.14503
1609459352,254,0.04980469,0.9731445,0.0649414,67.8168,-30.30534,-81.09924
1609459352,515,-0.2089844,1.459961,0.1103516,-72.1145,24.41985,67.64886
1609459352,773,-0.3271484,0.8496094,-0.0209961,-48.59542,60.34351,78.50381
1609459353,0,-0.1445313,1.294434,0.1425781,40.8168,-55.32825,-25.94657
1609459353,254,0.00341797,0.9536133,-0.2661133,82.74809,-82.69466,-75.12214
1609459353,509,-0.2309571,1.198242,-0.2749023,23.03053,-76.33588,6.687023
1609459353,765,-0.331543,0.9282227,-0.190918,-4.824428,-34.44275,1.938931
1609459354,0,-0.371582,0.8676758,0.06201172,-25.34351,-31.48092,5.564886
1609459354,258,-0.0703125,1.181641,-0.2128906,11.39695,-53.09923,0.610687
1609459354,517,0.00390625,1.058105,-0.09375,13.51908,-43.46565,-10.82443
1609459354,774,-0.5268555,1.007324,-0.1855469,-14.71756,-21.0,30.74809
1609459355,0,-0.1655273,1.004395,-0.046875,-0.3358779,-66.35114,12.68702
1609459355,264,-0.01123047,0.9409181,0.07958984,-5.59542,-70.74809,23.30534
1609459355,578,0.2958984,1.047852,-0.1098633,-9.503817,-42.19084,11.91603
1609459356,0,0.2714844,1.010254,0.0546875,-14.78626,-0.648855,-0.9160306
1609459356,261,0.2138672,0.9887695,0.1274414,-16.22137,-8.007633,1.778626
1609459356,521,0.1987305,0.9838867,0.1362305,-4.412214,-5.435114,-0.4809161