Epoch_time_s,milliseconds_elapsed,Ax,Ay,Az,Gx,Gy,Gz
1609459203,0,0.1870117,-1.05957,0.2333984,-21.51145,35.0458,-37.26717
1609459203,217,0.309082,-0.8374023,0.1992188,-11.06107,16.55725,4.10687
1609459204,0,0.2094727,-0.8349609,0.2475586,-1.740458,3.267176,17.0
1609459204,218,0.09472656,-1.088379,0.2246094,-13.0458,-2.083969,24.41221
1609459204,437,0.09765625,-0.9243164,0.01611328,-12.81679,-0.1145038,4.458015
1609459204,657,0.04296875,-0.8891602,-0.02783203,-10.29008,4.679389,-17.07634
1609459205,0,0.4257813,-0.8178711,-0.02929688,8.977099,18.37405,-12.77863
1609459205,259,0.06591797,-0.887207,0.3032227,-7.984733,40.32061,12.67176
1609459205,517,0.1582031,-1.218262,0.03857422,-2.015267,-77.28244,11.53435
1609459205,768,0.1582031,-0.8632813,-0.1025391,20.32825,-12.57252,0.06870229
1609459206,0,0.1943359,-1.329102,-0.01269531,-15.76336,71.83969,-11.28244
1609459206,259,0.1918945,-0.8339844,0.1445313,-12.10687,63.63359,-5.08397
1609459206,511,0.05810547,-1.257324,0.09375,10.22901,-53.20611,26.52672
1609459206,770,0.09033203,-0.7709961,-0.0703125,15.50382,-33.66412,6.21374
1609459207,0,0.05419922,-0.9282227,0.1894531,3.793893,44.59542,-15.20611
1609459207,261,0.1835938,-0.7802734,0.168457,-9.244275,10.72519,-13.23664
1609459207,522,0.02294922,-1.186523,0.3120117,10.9542,-67.51145,36.32061
1609459207,777,0.06054688,-0.8569336,-0.09814453,19.42748,-106.6412,19.09924
1609459208,0,0.01513672,-0.9965819,0.05322266,-20.92366,19.58779,-14.30534
1609459208,254,0.2895508,-1.043945,0.06152344,-20.63359,24.54198,-1.038168
1609459208,561,0.1020508,-0.9760742,0.1801758,7.610687,-8.984733,13.08397
1609459208,821,-0.05419922,-1.030762,-0.06738281,14.33588,-116.3817,-2.328244
1609459209,0,0.04492188,-0.8964844,-0.02197266,19.15267,-28.19847,2.641221
1609459209,258,0.2797852,-0.8608398,0.1445313,-36.80916,26.56489,-16.33588
1609459209,522,0.04980469,-0.8623048,0.2163086,-28.19847,-44.44275,-6.923664
1609459209,782,0.03027344,-1.233887,-0.1323242,17.51145,-120.9466,10.38931
1609459210,0,0.0,-0.9267578,-0.1767578,39.24427,-56.83206,14.12977
1609459210,258,0.1757812,-1.01416,0.02441406,-36.1832,37.72519,1.328244
1609459210,518,0.128418,-0.7543945,0.1469727,-21.77863,-15.0687,-24.68702
1609459210,780,-0.02929688,-1.421387,-0.2460938,20.53435,-78.84733,7.083969
1609459211,0,-0.02148438,-0.8808594,-0.02001953,28.54962,-55.16031,0.4656488
1609459211,263,0.09912108,-1.260742,0.2050781,-21.77863,18.9084,-25.64122
1609459211,527,0.2529297,-0.9257813,0.1538086,-15.49618,-4.10687,3.442748
1609459212,0,0.1938477,-0.9536133,0.1606445,-0.2061069,-27.64122,14.30534
1609459212,260,0.1855469,-1.161621,0.08203125,-11.08397,-45.0687,14.47328
1609459212,523,0.0805664,-0.8588867,-0.08886719,17.44275,-32.54198,3.916031
1609459212,833,0.2866211,-1.390625,0.1567383,-23.9313,57.31298,-30.05343
1609459213,0,0.1357422,-0.7514649,0.06982422,-0.05343513,-4.412214,3.778626
1609459213,268,0.09228517,-0.9770508,0.3007813,-7.549619,-7.068702,20.42748
1609459213,533,0.1713867,-1.174316,-0.2568359,15.52672,-41.22137,18.65649
1609459213,802,0.04785156,-0.7753906,-0.03417969,17.35114,-42.60305,-6.770992
1609459214,0,0.05664062,-1.625977,0.2294922,-37.40458,47.66412,-38.49618
1609459214,269,0.1889648,-0.7905273,-0.01757812,-19.92366,119.6412,18.0229
1609459214,534,0.1650391,-0.9960938,0.08886719,9.877863,-65.64886,7.763359
1609459215,0,-0.09814453,-1.039551,-0.1591797,10.19847,-93.69466,-16.9771
1609459215,268,0.1088867,-0.9047851,-0.112793,14.10687,-15.20611,-16.1145
1609459215,538,0.1762695,-0.8598633,-0.1801758,-21.87786,-49.29008,-8.167939
1609459215,807,0.137207,-0.8632813,0.1293945,-12.19847,-1.068702,15.47328
1609459216,0,-0.07666016,-1.482422,-0.1103516,-5.175572,-72.23664,12.41985
1609459216,268,0.1552734,-0.9467773,-0.1240234,35.62595,-51.45038,-14.80153
1609459216,534,0.2382812,-1.077148,-0.1074219,-2.679389,30.96183,-9.946565
1609459216,802,0.4248047,-0.7900391,-0.06738281,-20.32825,24.12214,15.29008
1609459217,0,0.08447267,-1.077148,0.05859375,-6.496184,-32.8168,11.0
1609459217,274,-0.0859375,-1.06543,-0.3105469,16.9313,-126.4809,-33.46565
1609459217,547,0.1430664,-0.8110351,-0.3203125,20.68702,35.53435,-1.114504
1609459218,0,0.1875,-0.7802734,0.1264648,0.687023,33.58015,-14.98473
1609459218,248,0.203125,-0.7783203,0.2065429,-9.740458,-19.12977,-0.1221374
1609459218,502,0.2421875,-0.8530273,-0.078125,-10.19847,-44.25191,9.709924
1609459218,754,0.0,-0.925293,-0.1743164,29.65649,-80.43511,-5.312977
1609459219,0,0.1010742,-1.288574,0.02539062,-6.51145,1.40458,-20.98473
1609459219,259,0.2797852,-0.9677734,0.06103516,12.9313,-56.50382,21.58015
1609459219,512,0.1342773,-1.041504,-0.1044922,15.9084,-100.2595,11.87023
1609459219,765,0.1191406,-0.7885742,-0.05615234,-8.732824,-68.99236,-8.0
1609459220,0,-0.1352539,-0.9912109,0.07226562,-21.9542,-70.41985,9.671756
1609459220,255,-0.00488281,-0.6611328,-0.355957,-4.89313,-72.54198,-13.41985
1609459220,508,0.4985352,-1.132813,-0.2241211,11.40458,-39.8855,7.236641
1609459220,763,0.1035156,-0.8217773,0.02490234,10.0458,-9.450381,-9.984733
1609459221,0,0.01025391,-1.340332,0.05126953,-7.923664,18.29771,22.77863
1609459221,309,-0.01416016,-0.8857422,-0.2128906,-10.94656,-40.13741,-1.412214
1609459221,565,0.04248047,-1.055664,-0.1552734,-15.07633,6.419847,-9.534351
1609459221,821,0.05126953,-0.9531249,-0.08740233,35.56488,48.93893,-43.8168
1609459222,0,0.2373047,-0.7700195,0.1782227,-1.221374,49.52672,-4.908397
1609459222,257,0.3188477,-0.8125,0.1733398,-0.6335878,-7.465649,5.534351
1609459222,512,0.2446289,-0.8564452,0.2661133,-25.62595,0.9160306,9.068703
1609459222,776,0.1054688,-0.9130859,-0.2114258,-8.229008,15.56489,2.458015
1609459223,0,0.03613281,-0.9233398,-0.04736328,2.137405,36.9084,4.679389
1609459223,259,0.04394531,-1.05957,0.07763672,-20.10687,51.41221,-35.33588
1609459223,521,0.2661133,-0.9531249,-0.01953125,0.129771,-8.885496,-3.870229
1609459224,0,0.1279297,-0.9492187,0.1347656,4.557252,-33.07634,20.09924
1609459224,262,0.140625,-1.24707,-0.02832031,0.9160306,-76.16031,15.25954
1609459224,520,0.1547852,-0.8657227,-0.1240234,30.74809,-49.03053,11.39695
1609459224,780,0.06933594,-0.8457031,0.09375,-16.14504,61.70992,-15.92367
1609459225,0,0.3540039,-0.8647461,0.07421875,-30.35878,38.19847,-18.70992
1609459225,258,0.1591797,-1.030762,0.1674805,4.625954,-46.82443,10.69466
1609459225,567,0.1723633,-1.012695,-0.4038086,-2.80916,-107.6107,-4.366412
1609459225,828,0.4799805,-1.11377,-0.472168,-2.984733,37.0458,19.57252
1609459226,0,-0.06640625,-0.6767578,0.2363281,-9.137404,53.99237,-27.0916
1609459226,264,0.01757812,-2.051758,-0.3916016,40.45038,-164.6488,-13.70229
1609459226,524,0.2109375,0.01757812,-0.3642578,-19.67175,59.69466,7.320611
1609459226,785,0.1181641,-0.9052734,0.2548828,-23.21374,57.48855,-12.24428
1609459227,0,0.1782227,-2.002441,-0.5864258,-13.64122,-158.4504,-19.35878
1609459227,268,0.315918,-0.1542969,-0.4414063,19.56489,59.72519,14.65649
1609459227,534,0.07177734,-0.4458008,0.1000977,-1.977099,-28.60305,-4.740458
1609459228,0,0.05273438,-2.835938,-0.7138672,36.93893,-188.2748,8.534351
1609459228,269,0.0625,-0.1704102,-0.4116211,24.03817,21.31298,26.06107
1609459228,535,-0.01660156,-0.5791016,0.1586914,-8.740458,32.69466,-17.32061
1609459228,801,0.3500976,-2.09375,-0.6264648,39.71756,-162.9542,3.068702
1609459229,0,0.1850586,-0.6176758,-0.2583008,4.580153,45.87023,11.51145
1609459229,267,-0.03076172,-0.6870117,0.1552734,2.862595,-75.99236,1.648855
1609459229,539,0.159668,-1.769531,-0.7856445,35.12214,-156.458,-28.99237
1609459229,855,0.3833008,-1.303223,0.1176758,-5.198473,-3.618321,-21.52672
1609459230,0,-0.2197266,-0.4536133,0.1889648,14.24428,-70.73283,32.38931
1609459230,264,0.2333984,-1.146973,-0.5327148,12.09924,-36.40458,-5.305344
1609459230,529,0.6118164,-1.456055,0.1103516,-21.65649,26.35878,-7.80916
1609459230,794,-0.1347656,-0.1713867,0.1391602,8.519084,-44.78626,32.87786
1609459231,0,0.3105469,-1.054688,-0.5415039,4.48855,-23.22137,-17.32061
1609459231,271,0.6108398,-1.549805,-0.04003906,-13.73282,54.69466,-10.00763
1609459231,542,-0.01611328,-0.4370117,0.1376953,1.984733,-67.50381,22.55725
1609459232,0,0.3295898,-0.7602539,-0.4038086,-16.39695,-0.7709923,0.02290076
1609459232,271,0.6035156,-1.77002,-0.05126953,-31.31298,147.7634,-6.114504
1609459232,572,0.00048828,-0.4726563,0.01220703,-18.81679,-58.93893,9.389313
1609459232,822,0.3735352,-0.7446289,-0.5864258,6.076336,9.580153,-10.29008
1609459233,0,0.105957,-2.011719,-0.1362305,23.9542,94.87023,-21.24427
1609459233,263,-0.1557617,-0.2763672,0.152832,5.442748,-67.14503,26.80916
1609459233,519,0.2539063,-0.7202149,-0.4677734,-3.633588,-21.0916,-14.62595
1609459233,773,0.5214844,-1.628906,-0.1206055,-5.419847,65.8168,-15.27481
1609459234,0,-0.3828125,-1.26123,0.2578125,13.31298,-121.1069,10.74046
1609459234,250,0.2631836,-0.465332,-0.4438476,-6.145038,-2.061069,-4.625954
1609459234,499,0.2958984,-1.333496,0.04492188,-7.160306,13.25954,-24.29008
1609459234,751,-0.05859375,-1.087891,0.1030273,14.62595,-90.0458,17.78626
1609459235,0,0.2924805,-0.703125,-0.371582,-17.61069,-44.96183,-6.312977
1609459235,255,0.3925781,-1.507813,-0.00048828,-14.12214,24.0916,-10.29008
1609459235,509,-0.1635742,-0.9355469,0.01660156,-4.664122,-52.24427,1.954198
1609459235,762,0.1621094,-0.4594726,-0.2866211,24.28244,-50.96947,-0.00763359
1609459236,0,0.3354492,-1.211914,-0.2558594,19.67175,-107.771,-23.74809
1609459236,255,0.2807617,-0.8564452,-0.046875,-5.862596,-37.63359,2.198473
1609459236,512,0.1040039,-1.192871,-0.1499023,5.526718,-54.32824,3.625954
1609459237,0,0.0336914,-0.894043,-0.137207,1.854962,-38.28244,-0.8931297
1609459237,256,0.1738281,-1.03125,-0.0288086,5.717557,25.67939,-20.0458
1609459237,517,0.1938477,-0.8574218,-0.03564453,5.015267,-18.52672,13.61069
1609459237,778,0.1259766,-0.8906249,-0.00292969,8.641221,-61.28244,26.9084
1609459238,0,0.01171875,-1.002441,-0.175293,-5.534351,-93.21374,-11.8626
1609459238,310,0.01904297,-1.105957,-0.144043,-2.954198,-26.19847,-14.61069
1609459238,567,0.2578125,-0.9833983,-0.1879883,14.15267,-43.10687,20.0687
1609459238,826,0.2841797,-0.8706055,0.00634766,7.51145,-11.99237,16.22137
1609459239,0,0.1328125,-1.273926,-0.1875,-16.75573,27.41985,-1.732824
1609459239,257,0.04980469,-0.9243164,-0.03222656,20.60305,42.69466,-3.160305
1609459239,519,0.05957031,-0.9340819,0.1264648,-5.068702,41.22901,-2.183206
1609459239,783,0.2685547,-1.023438,-0.00195312,-24.78626,40.98473,-29.51908
1609459240,0,0.1455078,-0.8330078,0.1523438,-0.9541985,-13.57252,11.53435
1609459240,267,0.1147461,-1.088867,-0.1889648,17.74046,-80.69466,-0.4809161
1609459240,527,0.07421875,-0.8598633,-0.1577148,-4.839694,1.19084,-2.442748
1609459240,791,0.3120117,-0.9970703,-0.0678711,-17.35114,44.25954,-15.24428
1609459241,0,0.137207,-0.7861328,0.1625977,-5.633588,31.58779,3.969465
1609459241,261,0.1118164,-1.853516,-0.3115234,29.35114,-108.7481,4.389313
1609459241,533,0.08447267,-0.6665039,-0.08447267,19.80153,-17.83206,8.511451
1609459242,0,0.3720703,-1.062012,-0.04541016,-27.70229,46.83206,-20.39695
1609459242,263,0.07763672,-0.8417969,0.15625,-8.717557,7.549619,-32.19847
1609459242,581,0.1962891,-0.9741211,-0.02832031,-1.664122,-73.90839,30.0229
1609459242,844,0.04492188,-0.78125,-0.046875,29.73283,-23.86259,4.603054
1609459243,0,0.1889648,-1.378906,0.07666016,-21.09924,62.28244,-10.31298
1609459243,262,0.09570312,-0.8251952,0.05175781,-25.89313,26.16031,-13.83206
1609459243,529,0.2167969,-0.9926758,0.07958984,5.572519,-34.38931,10.53435
1609459243,796,0.2041016,-1.064941,-0.1650391,31.29008,-77.05344,6.40458
1609459244,0,0.0546875,-0.8515625,0.01074219,3.679389,1.152672,-0.5954198
1609459244,268,0.277832,-1.029297,0.00732422,-28.0916,21.32825,-15.29008
1609459244,535,0.06689453,-0.8466797,0.08740233,-11.29771,-6.167939,4.198473
1609459245,0,-0.00097656,-0.7827149,0.1669922,9.366412,-8.725191,11.28244
1609459245,269,0.4394531,-0.9223633,-0.1987305,-3.320611,23.83206,-8.038168
1609459245,536,0.1147461,-0.9028319,-0.08251953,-14.80153,78.51908,-5.374046
1609459245,802,0.175293,-0.7744141,-0.0258789,-21.19084,145.6565,-39.58015
1609459246,0,0.2363281,-1.053223,0.07617188,-20.13741,55.26717,5.412214
1609459246,270,-0.00634766,-0.9833983,-0.0493164,36.86259,77.58015,-14.72519
1609459246,545,0.046875,-0.8325195,0.07861328,-60.53435,224.6031,-61.8855
1609459246,864,0.1845703,-0.8823242,0.25,-16.73282,41.60305,0.7480916
1609459247,0,-0.03955078,-1.731445,0.3720703,5.236641,130.0763,16.19847
1609459247,245,0.5151367,-1.300781,-0.06884766,-13.08397,26.03817,-9.503817
1609459247,494,-0.1274414,-0.6020508,0.1171875,3.755725,-52.71756,-2.549618
1609459247,748,0.02148438,-0.6733398,-0.1713867,-32.0687,-28.9084,-65.92367
1609459248,0,0.1977539,-0.7426758,-0.394043,-5.984733,-20.28244,-29.13741
1609459248,256,0.1376953,-0.4873047,0.02294922,10.12977,-82.22137,-41.10687
1609459248,515,-0.2402344,1.601074,-1.757324,-13.01527,-206.7328,-248.1832
1609459249,0,2.018066,0.4633789,0.1518555,-126.3969,112.9389,-58.54198
1609459249,252,0.1821289,0.1113281,0.7363282,-4.38168,7.259542,61.10687
1609459249,508,0.6811523,-0.8920898,0.1811523,-6.732824,7.38168,31.54198
1609459249,758,0.7436523,-0.1503906,-0.3974609,-24.0458,-43.71756,-0.2290076
1609459250,0,0.784668,-0.6367188,-0.496582,1.229008,-8.244275,150.0763
1609459250,256,0.371582,-0.9887695,-0.2070312,48.67939,-42.57252,46.48855
1609459250,512,0.1953125,-1.005859,-0.2836914,7.480916,5.38168,6.045802
1609459250,769,0.3139648,-1.060547,-0.2275391,-23.22901,63.71756,-43.77863
1609459251,0,0.6347656,-0.6689453,-0.2182617,-41.53435,57.42748,-34.47328
1609459251,257,0.7441406,-0.6269531,-0.2612305,-17.32825,-41.42748,25.29771
1609459251,513,0.9692384,-0.8203125,-0.3515625,23.9542,5.877862,24.75572
1609459251,773,0.7705078,-0.9360351,0.03027344,-3.076336,75.62595,7.908397
1609459252,0,0.324707,-0.9028319,0.1455078,16.24427,10.67176,-22.77099
1609459252,259,0.8491211,-0.8090819,-0.2504883,29.14504,-136.8931,-60.25191
1609459252,520,0.7939453,-0.4560547,-0.1357422,81.12214,-55.0229,-49.41221
1609459252,783,0.5917969,-1.010254,0.402832,-25.27481,25.0458,9.099236
1609459253,0,0.9238282,-0.5791016,-0.1977539,-74.9771,-39.65649,-48.77099
1609459253,269,0.7724609,-0.8300782,-0.3388672,-94.8168,39.40458,63.83969
1609459253,528,0.3525391,-0.2104492,-0.1376953,-54.70992,40.1145,61.64885
1609459253,787,0.487793,-1.312012,-0.4228516,-9.587787,21.57252,41.92366
1609459254,0,0.06103516,-0.8193359,-0.05126953,24.38931,0.2061069,-2.755725
1609459254,260,0.2358398,-0.8569336,-0.02929688,-3.099237,-22.38168,-8.862596
1609459254,521,0.4941407,-1.150879,-0.02636719,-35.1832,39.00763,-20.27481
1609459255,0,0.296875,-0.8515625,-0.08837892,3.175572,11.77099,11.63359
1609459255,313,0.2563477,-0.8325195,-0.04394531,15.96183,-66.79389,18.1145
1609459255,577,0.4584961,-1.020508,-0.2255859,40.20611,-53.35115,-1.687023
1609459255,837,0.2841797,-0.9306641,-0.1582031,7.030534,33.44275,-22.9313
1609459256,0,0.7021484,-0.7260742,0.02685547,3.541985,54.16793,-16.93893
1609459256,263,0.3959961,-0.6811523,0.1264648,-27.18321,44.17557,-6.656488
1609459256,524,0.3994141,-0.8432616,0.1533203,-22.25191,-51.07634,7.671755
1609459256,787,0.5888672,-0.8027344,-0.3916016,10.58779,31.77099,46.45802
1609459257,0,0.09960938,-0.8286133,-0.1240234,69.64122,-56.77863,-10.42748
1609459257,265,0.6030273,-1.175781,-0.1020508,-70.06107,84.14503,-43.73283
1609459257,533,0.3095703,-0.9067384,0.1259766,-37.13741,69.58015,4.366412
1609459257,798,0.2260742,-1.620605,0.04345703,5.183206,-68.49619,21.39695
1609459258,0,0.6591797,-0.4951172,-0.2324219,27.50382,-24.76336,7.458015
1609459258,270,0.4018555,-1.009766,0.1259766,-0.7480916,40.34351,-29.12214
1609459258,537,0.3745117,-1.219727,-0.1494141,-36.86259,-9.59542,-4.068702
1609459259,0,0.3203125,-0.8525391,0.1699219,-19.0,35.56488,12.69466
1609459259,267,0.1894531,-1.09082,0.046875,-15.07633,-47.09161,-1.21374
1609459259,586,0.3701172,-0.9819336,-0.1015625,47.15267,-17.31298,-1.687023
1609459259,858,0.8950195,-0.6079102,0.09423828,-29.35114,37.45038,-12.78626
1609459260,0,0.1962891,-0.7211915,0.3066406,-14.65649,42.77099,-11.01527
1609459260,265,0.4453125,-1.352539,-0.1425781,-10.38168,-46.19084,39.96947
1609459260,531,0.2426758,-0.6938477,-0.2006836,27.33588,-49.67176,2.091603
1609459260,802,0.3339844,-0.9438477,-0.1220703,-16.73282,-2.770992,-25.33588
1609459261,0,0.7148438,-0.7250977,-0.4116211,-0.5572519,14.32061,-7.687023
1609459261,269,0.0649414,-0.7070313,0.2490234,-0.08396947,42.47328,18.38931
1609459261,577,0.5336914,-1.286621,-0.1098633,-29.48855,24.53435,15.61069
1609459262,0,0.3969726,-0.7807617,-0.2041016,25.87023,-41.31298,4.725191
1609459262,249,0.3544922,-0.9067384,-0.09521483,0.351145,64.72519,-6.48855
1609459262,499,0.6088867,-0.7993164,0.01855469,-17.05343,54.48855,1.206107
1609459262,749,0.3754883,-0.8374023,0.140625,-17.19847,15.41221,-0.7709923
1609459263,0,0.3291016,-1.306152,-0.1870117,-21.37405,-50.31298,3.282443
1609459263,252,0.2700195,-0.9116211,-0.3168945,19.71756,-54.40458,-4.38168
1609459263,506,0.2060547,-0.9858398,-0.2568359,-1.946565,-19.41221,5.442748
1609459263,807,0.2182617,-1.010254,-0.2143554,-6.870229,29.0458,-27.9771
1609459264,0,0.4233398,-0.831543,-0.0366211,25.0687,-21.72519,2.259542
1609459264,257,0.3662109,-0.7617187,0.01220703,-3.877863,-33.92366,4.389313
1609459264,512,0.8081055,-0.8603517,-0.1542969,-3.480916,-9.229008,17.64122
1609459264,767,0.1635742,-0.8496094,-0.1328125,10.50382,51.35115,-9.083969
1609459265,0,0.2749023,-1.187012,-0.06103516,-38.41985,98.84732,-43.70229
1609459265,257,0.2519531,-0.7060547,0.1557617,-6.244275,79.76336,-5.129771
1609459265,514,0.3979492,-0.8833008,0.1303711,-5.320611,4.748092,37.50382
1609459265,771,0.08251953,-1.014648,-0.1425781,17.65649,-47.38931,14.70229
1609459266,0,0.1342773,-0.9702149,0.06445312,-4.572519,15.85496,-17.77099
1609459266,256,0.2714844,-0.6679688,-0.00341797,15.93893,20.45802,-38.47328
1609459266,511,0.3959961,-0.7216797,0.2314453,9.977099,54.51908,-2.022901
1609459266,766,0.4125976,-0.8203125,0.2954102,-27.37405,36.83206,6.045802
1609459267,0,-0.02978516,-0.9980469,-0.1572266,-30.87023,33.45038,-18.48092
1609459267,260,0.04638672,-0.9082031,0.06347656,-21.76336,66.89313,-19.14504
1609459267,523,0.1914062,-0.9570313,0.06689453,-50.66412,121.5191,-41.37405
1609459268,0,0.3291016,-0.7475585,0.02685547,-26.38168,57.00763,-3.832061
1609459268,256,0.3261719,-0.7719727,0.05615234,-0.7022901,-15.90076,15.28244
1609459268,514,0.3945313,-1.062012,-0.1567383,2.824428,-23.61069,3.70229
1609459268,773,0.3017578,-0.8730469,-0.2016602,14.01527,56.78626,-19.75573
1609459269,0,0.3759766,-0.8603517,0.2016602,-21.61069,68.85497,-19.77099
1609459269,262,0.3378906,-0.8496094,0.144043,-26.87023,14.52672,5.694657
1609459269,526,0.7197266,-0.6694336,-0.1000977,-34.22137,42.25191,14.91603
1609459269,790,0.1767578,-0.9106445,-0.1118164,11.58015,57.48855,-4.312977
1609459270,0,0.15625,-1.041504,0.0600586,-9.122137,57.27481,-23.19084
1609459270,263,0.2304688,-0.6523438,0.121582,-21.31298,39.86259,-28.25954
1609459270,522,0.4013672,-0.8466797,0.1508789,-11.47328,5.557252,1.625954
1609459270,784,0.2900391,-1.295898,-0.0834961,-24.13741,-5.076336,20.71756
1609459271,0,0.3510742,-0.9760742,-0.2602539,12.61069,28.24428,37.74046
1609459271,266,0.05664062,-1.034668,-0.08984375,-7.587786,31.20611,-7.961833
1609459271,531,0.07080078,-0.8203125,0.02490234,6.541985,40.29008,-28.03817
1609459271,797,0.6162109,-0.9155273,-0.0336914,7.839694,-30.16031,13.79389
1609459272,0,0.3564453,-0.8618164,0.02294922,-7.221374,63.42748,2.610687
1609459272,268,0.2138672,-0.9223633,0.05908203,-26.16794,82.87023,-5.557252
1609459272,536,0.1020508,-1.041504,-0.00097656,-3.885496,2.519084,12.29771
1609459273,0,0.1518555,-0.9599609,-0.015625,4.290076,-17.43511,4.977099
1609459273,263,0.1313477,-0.9667969,0.00048828,-4.022901,1.137405,-2.137405
1609459273,535,0.1757812,-0.9580078,-0.01025391,-2.862595,-5.717557,-0.519084
1609459273,805,0.1489258,-1.033203,0.09277344,-14.80153,13.49618,-8.244275
1609459274,0,0.1953125,-0.9589844,-0.00292969,-4.305344,-2.938931,-1.641221
1609459274,274,0.2436523,-0.9604492,-0.05566406,-6.89313,-14.59542,-3.89313
1609459274,540,0.2490234,-0.9589844,-0.0546875,-13.20611,-5.137404,-2.290076
1609459274,807,0.2202148,-0.9492187,-0.08300781,-16.12214,-19.8855,-8.221375
1609459275,0,0.1845703,-0.8364258,-0.1704102,-25.37405,-21.32825,-13.70992
1609459275,268,0.2734375,-0.9101563,-0.3334961,-34.19084,-7.458015,-7.282443
1609459275,540,0.2856445,-0.8408203,-0.4282226,-9.167939,-11.26718,-0.1374046
1609459276,0,0.1728516,-0.9521483,-0.5874023,-22.0458,-18.71756,-5.740458
1609459276,307,0.3032227,-0.8349609,-0.5234375,0.2442748,-20.78626,-13.38931
1609459276,610,0.2836914,-0.8422851,-0.59375,-9.458015,-8.0,-6.10687
1609459276,868,0.2670898,-0.8085938,-0.612793,-13.06107,-10.29008,-5.496184
1609459277,0,0.2250977,-0.8203125,-0.6835938,-4.015267,0.00763359,4.641222
1609459277,256,0.1782227,-0.7514649,-0.6484375,-9.572519,-8.61832,1.656489
1609459277,509,0.2089844,-0.8085938,-0.6875,-3.610687,2.160305,5.748092
1609459277,762,0.2016602,-0.7978516,-0.6660156,1.526718,8.778625,2.969465
1609459278,0,0.168457,-0.7753906,-0.6074219,6.183207,11.59542,0.4045802
1609459278,250,0.1835938,-0.8735351,-0.6108398,2.259542,6.427481,2.183206
1609459278,502,0.175293,-0.7827149,-0.5209961,1.648855,0.7480916,-0.3282443
1609459278,754,0.2089844,-0.9848633,-0.5820313,-0.6564885,0.4656488,1.328244
1609459279,0,0.1098633,-0.9790039,-0.6000977,19.35878,9.022901,2.389313
1609459279,256,0.2143554,-0.9438477,-0.4301758,13.22901,39.60305,1.824428
1609459279,518,0.2128906,-0.8383789,-0.2714844,43.28244,8.137404,-6.717557
1609459279,778,0.2055664,-0.8867187,-0.06298828,11.15267,58.82443,0.2061069
1609459280,0,0.3041992,-0.9082031,-0.08154297,-4.396946,43.67939,3.160305
1609459280,257,0.1728516,-0.9609375,0.06982422,-9.061069,45.57252,-0.07633588
1609459280,562,0.2641602,-1.01709,0.02148438,5.603054,-52.32061,13.00763
1609459281,0,0.2700195,-0.9165039,-0.0209961,3.946565,-5.450381,2.687023
1609459281,256,0.2075196,-0.9716797,0.02636719,-16.21374,36.80153,-2.396947
1609459281,511,0.1054688,-0.96875,0.02490234,-5.137404,23.67939,-2.625954
1609459281,768,0.128418,-0.9238282,0.04345703,-6.839694,7.862596,0.0
1609459282,0,0.1269531,-0.9379884,0.03320312,2.496183,-0.9694656,-7.534351
1609459282,255,0.1464844,-0.9609375,0.1118164,-9.78626,9.267176,0.2290076
1609459282,516,0.1269531,-1.015625,0.09423828,-5.931298,12.70229,-6.335878
1609459282,772,0.1123047,-0.9765625,0.03515625,-0.7862596,-13.41221,-5.908397
1609459283,0,0.2797852,-0.9716797,-0.128418,-25.69466,44.70992,-4.40458
1609459283,261,0.1557617,-0.9853517,0.0703125,-12.19847,13.98473,-4.78626
1609459283,522,0.199707,-0.9350585,0.07519531,-6.129771,2.015267,-4.274809
1609459283,790,0.1357422,-1.187012,0.01708984,5.755725,-11.27481,-1.427481
1609459284,0,0.1494141,-0.9477539,0.02783203,-1.045802,-26.0229,-13.77099
1609459284,262,0.2519531,-0.9091797,0.03759766,-6.900764,-3.213741,-1.549618
1609459284,528,0.2275391,-0.9755859,-0.03710938,-4.801527,-11.31298,6.763359
1609459285,0,0.09472656,-1.039063,0.01611328,-10.63359,-9.450381,-5.251908
1609459285,260,0.1474609,-0.8588867,-0.08496094,-12.0458,4.503817,-7.633588
1609459285,524,0.2138672,-1.062012,-0.06689453,-10.29771,-14.36641,-5.458015
1609459285,790,0.2988281,-0.9487305,-0.09277344,2.557252,-22.67939,-0.02290076
1609459286,0,0.2333984,-0.9326172,-0.112793,-7.427481,-15.77099,-6.496184
1609459286,268,0.2016602,-0.9873048,-0.1225586,-6.442748,-22.09924,-5.40458
1609459286,532,0.2495117,-0.9672851,-0.2392578,0.7175572,-28.19084,-13.51145
1609459286,796,0.3295898,-0.9199218,-0.2070312,4.0,4.450382,6.969466
1609459287,0,0.1547852,-1.054199,-0.08789062,0.02290076,-27.98474,-0.8854961
1609459287,267,0.1396484,-0.9516602,-0.1298828,-5.59542,-22.15267,-25.16794
1609459287,537,0.3676758,-0.8666992,-0.1923828,1.137405,-36.44275,0.778626
1609459287,809,0.3193359,-1.032715,-0.1738281,26.36641,-29.85496,-1.618321
1609459288,0,0.1826172,-0.8798828,0.08007812,22.21374,2.206107,-7.229008
1609459288,269,0.2348633,-0.8764649,0.1738281,-2.755725,-35.19084,5.152672
1609459288,537,0.3393555,-0.8974609,0.03417969,-11.19084,-35.22901,13.83206
1609459289,0,0.2744141,-1.157715,-0.01855469,-5.374046,-24.46565,8.916031
1609459289,320,0.2578125,-0.8979492,-0.1635742,29.58015,-52.01527,-11.66412
1609459289,589,0.2456054,-1.111816,-0.09033203,0.259542,21.44275,-12.30534
1609459289,859,0.3798828,-0.9096681,0.0258789,-21.1145,12.67176,-5.854962
1609459290,0,0.2290039,-0.9550782,0.06982422,2.122137,-26.36641,5.08397
1609459290,274,0.3671875,-0.9257813,-0.07324219,40.8168,-93.12214,14.99237
1609459290,587,0.1831055,-0.7075195,-0.06591797,10.0458,21.53435,-12.98473
1609459290,835,0.355957,-0.987793,0.01171875,-44.38931,30.28244,-13.70229
1609459291,0,0.3676758,-0.8203125,0.1621094,-6.541985,16.25954,-9.984733
1609459291,253,0.3427734,-0.9819336,-0.1181641,24.9771,-65.771,31.19084
1609459291,507,0.1147461,-0.7978516,-0.05664062,31.72519,-10.78626,15.54962
1609459291,760,0.2700195,-1.101074,-0.01611328,-41.32061,36.8168,-39.03817
1609459292,0,0.347168,-0.8886718,0.05419922,-30.70992,33.41221,-38.25954
1609459292,249,0.2924805,-0.8032227,0.2329102,-1.381679,-21.68702,15.9084
1609459292,500,0.2973633,-1.148926,-0.1816406,26.70229,-77.23664,5.923664
1609459292,749,0.184082,-0.7368164,-0.05126953,38.19084,-24.1145,0.778626
1609459293,0,0.4428711,-1.236328,0.00634766,-34.33588,33.43512,-10.83969
1609459293,307,0.152832,-0.7744141,0.1005859,-23.28244,19.74046,-11.68702
1609459293,563,0.3286133,-0.9604492,0.07861328,13.81679,-54.21374,6.671755
1609459294,0,0.3535156,-1.04834,-0.1821289,61.19084,-82.69466,15.70229
1609459294,260,0.1567383,-0.8403319,0.0209961,-1.320611,5.854962,-6.503816
1609459294,513,0.3261719,-0.9003906,0.04248047,-33.68702,29.69466,-24.31298
1609459294,765,0.1376953,-0.8613282,0.1875,-17.66412,3.564885,-4.763359
1609459295,0,0.1333008,-1.821289,-0.2983398,44.8168,-91.76337,34.55725
1609459295,262,0.1254883,-0.9951172,-0.05761719,66.75572,-65.06107,17.34351
1609459295,523,0.46875,-0.8652344,0.00048828,-69.10687,70.64886,-2.786259
1609459295,779,0.168457,-0.8955078,0.1831055,-23.31298,71.21374,-39.65649
1609459296,0,0.3076172,-1.364746,0.1552734,-1.435114,-49.1374,3.206107
1609459296,262,0.2807617,-0.7504883,-0.1201172,67.91603,-69.40458,12.12214
1609459296,521,0.2983398,-1.030762,0.00146484,-28.45038,-10.38168,-6.641222
1609459296,777,0.3725586,-0.9248048,0.1542969,-21.37405,10.48855,18.96183
1609459297,0,0.1298828,-0.9682616,0.1318359,1.122137,-20.87023,-20.28244
1609459297,260,0.01806641,-1.028809,-0.1499023,21.55725,-98.37404,-0.519084
1609459297,573,0.2744141,-0.9179687,-0.125,31.9084,-28.67939,1.305344
1609459297,833,0.4990234,-0.9882813,-0.07714844,23.52672,-71.08397,31.71756
1609459298,0,0.2026367,-0.8823242,-0.01171875,16.80916,-68.77863,5.389313
1609459298,267,0.09570312,-1.023438,0.00195312,1.725191,-67.16031,5.282443
1609459298,529,0.1767578,-0.8857422,-0.1357422,34.9084,-60.35115,4.40458
1609459299,0,0.2958984,-1.23877,0.08447267,-43.19084,20.0458,4.572519
1609459299,260,0.2548828,-0.8774415,0.08740233,-4.519084,-1.679389,-7.473282
1609459299,522,0.2724609,-0.8828125,-0.02294922,2.129771,-76.79389,16.16031
1609459299,788,0.09619142,-0.9887695,-0.0336914,-2.557252,-77.12214,-4.335878
1609459300,0,0.1259766,-0.9331055,-0.1577148,5.755725,-56.44275,-12.06107
1609459300,265,0.1757812,-0.9873048,-0.1074219,-25.00763,-32.27481,-32.86259
1609459300,531,0.3300781,-0.5307617,-0.3886719,-35.53435,-39.19847,-51.74809
1609459300,801,0.5092773,-0.8300782,-0.4091797,-6.801527,24.68702,-46.30534
1609459301,0,6.671875,-4.525879,5.185547,93.83969,250.1298,-232.8702
1609459301,265,1.818848,1.054688,1.509277,-111.1374,-113.7786,51.38931
1609459301,530,0.2324219,0.5581055,0.4624024,30.46565,67.29771,-10.9771
1609459302,0,1.072266,-0.6123047,0.09179688,-71.07633,-67.89313,55.40458
1609459302,271,0.7143555,-0.5415039,0.1362305,-39.31298,-19.0458,20.87023
1609459302,537,0.4711914,-0.6972656,0.2065429,15.21374,10.41985,-38.51145
1609459302,807,0.7016602,-0.2661133,0.2143554,2.396947,40.77863,-25.27481
1609459303,0,1.018066,-0.2363281,0.2236328,2.641221,-4.625954,-11.25954
1609459303,272,0.9013672,-0.3447266,-0.00244141,-33.86259,7.40458,23.03817
1609459303,538,0.7558594,-0.6279297,0.00488281,-11.98473,-1.748092,31.0687
1609459303,805,1.015137,-0.6333008,0.2680664,-10.06107,-3.610687,-6.580153
1609459304,0,0.7543945,-0.7314453,0.1459961,12.73282,-17.1145,8.954199
1609459304,271,0.6928711,-0.6035156,0.2363281,3.122137,13.0,-0.1526718
1609459304,540,0.7675782,-0.6083984,0.1914062,-2.19084,4.099236,-0.09160307
1609459304,817,0.7089844,-0.5874023,0.2275391,-2.320611,11.24428,-0.4045802
1609459305,0,0.7475585,-0.6118164,0.2631836,-3.526718,1.0,-1.564886
1609459305,301,0.7470703,-0.6108398,0.2392578,-1.954198,-0.4732824,-0.03816794
1609459305,558,0.9858398,-0.4506836,0.3164063,-30.93893,17.10687,-20.40458
1609459306,0,0.7651367,-0.6635742,0.1821289,8.534351,-25.70992,26.25954
1609459306,306,0.2880859,-0.6855469,0.1455078,8.671756,31.35114,133.1756
1609459306,558,0.1796875,-1.184082,-0.03515625,-60.19084,-4.343512,-17.91603
1609459306,808,0.3378906,-0.684082,-0.0678711,6.992366,-109.8779,-39.06107
1609459307,0,0.1464844,-1.186523,-0.2724609,36.28244,-81.51908,33.44275
1609459307,252,-0.05566406,-1.629883,0.00830078,99.58015,1.312977,-9.389313
1609459307,508,0.0571289,-1.19043,-0.1704102,-42.65649,74.28244,-61.10687
1609459307,768,0.3632813,-0.621582,-0.2709961,-24.61069,42.21374,-11.67939
1609459308,0,0.1772461,-0.4882813,0.08105469,-2.80916,87.33588,10.61069
1609459308,255,0.4394531,-0.7939453,0.04101562,-34.54962,2.786259,-3.206107
1609459308,518,0.199707,-0.7543945,-0.2128906,41.49618,-66.37405,4.045802
1609459308,774,0.2197266,-0.9370116,-0.1240234,12.25191,11.61832,-2.274809
1609459309,0,0.4985352,-1.406738,0.00976562,-23.29008,21.99237,-18.29008
1609459309,258,0.2504883,-0.6762695,0.00488281,-10.61832,23.14504,8.877863
1609459309,517,0.3076172,-0.831543,0.00927734,-1.572519,-14.92367,4.656488
1609459309,779,0.2880859,-0.8583983,-0.2202148,11.60305,-51.7939,-1.244275
1609459310,0,0.2719727,-0.9257813,-0.159668,21.52672,19.79389,-1.022901
1609459310,308,0.4599609,-1.383301,-0.06835938,-54.8168,34.41985,-31.70992
1609459310,575,0.3510742,-0.6469727,-0.1137695,-12.40458,57.22137,22.03053
1609459311,0,0.3134766,-0.8417969,0.08447267,2.21374,-3.786259,6.778626
1609459311,256,0.4194336,-0.8305664,-0.06298828,-16.92366,10.38931,3.450382
1609459311,520,0.3271484,-0.84375,-0.1904297,28.56489,-6.290076,3.480916
1609459311,778,0.4287109,-1.277344,0.1489258,-37.62595,62.16793,-5.549619
1609459312,0,0.34375,-0.7617187,0.03613281,-34.60305,59.30534,-8.045801
1609459312,265,0.3354492,-0.9721681,0.06054688,-1.793893,-25.0458,-6.40458
1609459312,532,0.08837892,-0.9614258,-0.1860352,42.07634,-118.4198,4.419847
1609459312,796,0.1889648,-0.8334961,-0.02246094,6.091603,-5.885496,-10.16794
1609459313,0,0.4907226,-1.319824,0.03564453,-62.99237,69.70229,-7.206107
1609459313,261,0.1416016,-0.824707,0.046875,-40.93893,61.62595,-6.389313
1609459313,525,0.277832,-0.9858398,0.06933594,20.80916,-41.75573,4.633588
1609459313,785,0.1049805,-0.9726563,-0.2104492,33.78626,-94.09923,6.167939
1609459314,0,0.1938477,-0.8022461,-0.07861328,9.427481,-5.870229,-7.412214
1609459314,266,0.4858398,-1.023926,0.03173828,-75.37405,78.75572,-29.9542
1609459314,581,0.1943359,-0.8320313,0.07080078,-20.70992,33.9084,7.625954
1609459315,0,0.2363281,-1.150391,-0.1069336,3.015267,-27.0,15.89313
1609459315,264,0.1767578,-0.8974609,-0.2607422,55.42748,-78.59542,-1.053435
1609459315,525,0.2490234,-0.7827149,-0.07373047,11.54962,-17.98473,-14.80916
1609459315,789,0.4946289,-0.9462891,0.01416016,-47.91603,66.80153,-8.374045
1609459316,0,0.2875977,-0.8398438,0.1240234,-17.57252,21.58015,1.21374
1609459316,266,0.421875,-1.059082,0.03808594,0.610687,3.992366,19.06107
1609459316,534,0.2236328,-1.014648,-0.1689453,47.65649,-88.29771,-6.015267
1609459316,805,0.1625977,-0.9228517,-0.04296875,-10.20611,24.09924,-13.90076
1609459317,0,0.3710938,-0.7929687,0.0493164,-23.8855,3.198473,-11.33588
1609459317,269,0.3632813,-0.8764649,0.09423828,-1.763359,-5.832061,3.832061
1609459317,535,0.4975586,-0.9741211,0.01416016,-6.48855,19.44275,17.28244
1609459317,804,0.1420898,-0.7397461,-0.1523438,8.099236,63.32825,7.27481
1609459318,0,0.07324219,-1.245117,0.02832031,-21.85496,62.8626,-31.99237
1609459318,270,0.2338867,-0.9428711,0.0390625,-63.41985,71.01527,-19.33588
1609459318,539,0.2802734,-0.9238282,-0.1040039,-10.59542,-55.1374,-3.70229
1609459319,0,0.4609375,-0.8808594,-0.4448242,24.85496,18.28244,29.36641
1609459319,267,0.2299804,-0.9746094,-0.2719727,-4.923664,57.64122,-15.12214
1609459319,534,0.2514648,-0.8725585,-0.09570312,-51.24427,121.7252,-31.17557
1609459319,808,0.4233398,-0.8901367,0.0649414,-16.01527,71.83206,12.19847
1609459320,0,0.3076172,-0.9155273,0.04101562,-25.52672,50.77863,-1.19084
1609459320,251,0.2880859,-0.9619141,-0.1030273,2.251908,-4.206107,-4.099236
1609459320,503,0.2055664,-0.9697266,-0.06884766,-1.801527,-5.358778,-0.3816794
1609459320,751,0.3046875,-0.9970703,-0.08642578,-14.65649,8.656488,1.351145
1609459321,0,0.5024414,-0.9506836,-0.04492188,-16.03817,58.19848,-10.93893
1609459321,250,0.4594726,-0.7944336,-0.0390625,-39.56488,99.47328,3.427481
1609459321,505,0.4829102,-0.8291017,-0.03271484,-32.90076,79.08397,3.19084
1609459321,760,0.1347656,-1.085449,-0.08544922,-17.33588,81.41985,4.603054
1609459322,0,0.1616211,-0.9155273,-0.07519531,0.2671756,8.206107,3.389313
1609459322,256,0.2724609,-0.8950195,-0.02636719,-21.78626,15.01527,-9.541985
1609459322,509,0.4384766,-0.9868164,0.00878906,-7.72519,24.57252,-8.229008
1609459322,760,0.4697266,-0.8168945,-0.03564453,24.0458,-22.72519,10.07634
1609459323,0,0.5268555,-0.8159181,-0.02685547,1.244275,-20.35114,26.70229
1609459323,255,0.08984375,-0.7490234,-0.1196289,11.07633,-46.00763,-23.22137
1609459323,514,0.2080078,-0.8476563,-0.03857422,-3.839695,-20.87023,-3.70229
1609459324,0,0.4018555,-1.033203,-0.07128906,-26.01526,9.312977,-22.47328
1609459324,254,0.4995117,-0.8354492,-0.1225586,12.41985,-21.87786,7.625954
1609459324,511,0.1953125,-0.9042969,0.121582,-3.946565,-71.75572,8.488549
1609459324,767,0.2202148,-1.006836,-0.4658203,50.01527,-115.5496,-50.06107
1609459325,0,0.440918,-0.8393555,-0.4389648,49.38931,2.435115,1.381679
1609459325,256,0.4541016,-0.9672851,-0.02783203,-25.40458,33.25191,22.75572
1609459325,512,0.378418,-1.019043,-0.08544922,-19.90076,59.51145,19.36641
1609459325,773,0.1254883,-0.9243164,-0.1367188,-11.45802,26.21374,-16.01527
1609459326,0,0.2011719,-0.8481445,0.00488281,-23.46565,70.83206,-0.7099237
1609459326,268,0.3725586,-1.340332,0.0366211,-15.72519,100.313,-4.465649
1609459326,526,0.1665039,-0.7558594,0.04882812,-23.55725,61.33588,7.427481
1609459326,785,0.3125,-0.9438477,0.1494141,-3.633588,-38.36641,1.229008
1609459327,0,0.4414063,-0.8427734,-0.1289063,20.54962,-39.41221,2.022901
1609459327,307,0.5009766,-1.476074,-0.1108398,-12.69466,43.03053,1.21374
1609459327,565,0.1704102,-0.8027344,0.03222656,-25.38168,43.17557,-15.24428
1609459327,827,0.3168945,-1.001465,0.04882812,-0.5419847,-36.32824,10.58779
1609459328,0,0.3671875,-0.9770508,-0.1010742,44.80916,-76.29771,4.427481
1609459328,262,0.1972656,-0.8813477,-0.01708984,8.366412,8.511451,-5.931298
1609459328,529,0.2148438,-0.9375,-0.00195312,-43.26717,9.0,-35.34351
1609459329,0,0.1328125,-0.8486328,0.09130858,-7.534351,-11.54962,-7.335878
1609459329,264,0.2651367,-0.9365234,-0.09570312,17.78626,-84.0,16.30534
1609459329,528,0.2153321,-0.777832,-0.1987305,46.25954,-27.0229,4.129771
1609459329,788,0.5039063,-0.793457,0.04882812,-47.34351,61.83969,2.412214
1609459330,0,0.2080078,-0.8950195,0.1323242,-23.36641,31.54962,-15.83206
1609459330,264,0.2314453,-0.9448242,0.1425781,-20.41985,47.76336,12.24428
1609459330,529,0.159668,-0.8310548,-0.1420898,27.12977,40.60305,9.877863
1609459330,799,0.3466797,-1.547852,0.07470703,-22.41221,82.0458,8.122137
1609459331,0,0.2480469,-0.7680664,0.07763672,-22.61069,122.2977,-3.671756
1609459331,267,0.5170898,-1.021973,-0.2119141,4.335878,21.49618,17.53435
1609459331,581,0.02978516,-0.8188477,-0.04980469,-6.740458,112.7099,-33.72519
1609459332,0,0.3852539,-0.7758789,0.2539063,-41.96947,99.73283,-62.77863
1609459332,267,0.2895508,-0.7709961,0.1967773,-37.03053,56.74046,7.59542
1609459332,537,0.2412109,-1.018066,0.04052734,0.9541985,-79.65649,12.55725
1609459332,806,0.1845703,-0.8598633,-0.01855469,20.98473,13.75572,-4.770992
1609459333,0,0.1674805,-0.7939453,-0.09423828,-31.16031,-3.381679,-40.84733
1609459333,268,0.309082,-0.6762695,-0.3076172,-38.27481,-65.51145,-77.0
1609459333,536,0.5185547,-0.5449219,-0.4287109,-37.37405,105.7328,-87.48091
1609459333,804,1.279785,-2.875,-0.7001953,54.92366,-9.068703,197.5267
1609459334,0,0.2392578,0.7768555,0.4301758,-49.0,166.2672,2.427481
1609459334,271,0.434082,-0.06298828,0.309082,53.25191,-30.07634,10.30534
1609459334,581,0.7514649,0.0415039,0.09667969,33.10687,-22.19084,21.27481
1609459335,0,0.8349609,-0.2617188,0.2709961,-96.46565,126.7939,25.90076
1609459335,250,0.9531249,0.1293945,0.1640625,10.47328,33.64885,2.137405
1609459335,499,0.9931641,-0.02539062,0.262207,-19.10687,14.96183,-3.229008
1609459335,750,0.9599609,0.08935547,0.3037109,5.496184,11.64886,4.236641
1609459336,0,0.9331055,-0.00878906,0.1704102,-11.34351,4.801527,-4.847328
1609459336,253,0.9580078,0.07080078,0.2211914,-6.29771,10.8855,0.6946565
1609459336,509,0.9975585,0.0336914,0.1938477,-2.343511,-2.748092,-0.7480916
1609459336,761,1.009766,0.02392578,0.1513672,-3.290076,4.503817,-0.4809161
1609459337,0,0.9658203,0.03222656,0.2109375,-3.832061,-0.4198473,-1.122137
1609459337,251,0.9843751,0.01953125,0.1821289,0.4656488,-0.3816794,-2.748092
1609459337,507,0.9863282,0.05322266,0.2397461,-2.51145,3.687023,0.4961832
1609459337,757,0.9936523,0.01757812,0.1762695,-5.038168,2.587786,-0.8854961
1609459338,0,1.006836,-0.0078125,0.1679688,-3.465649,0.4961832,-1.503817
1609459338,256,1.008301,0.01464844,0.1987305,2.709924,19.58779,0.7633588
1609459338,513,1.105957,-0.01269531,0.1870117,-8.603053,16.09924,-5.236641
1609459338,770,0.9589844,0.02294922,0.2290039,-11.61832,7.587786,-4.877862
1609459339,0,0.9731445,0.0546875,0.2788086,4.732824,-4.732824,-1.694656
1609459339,257,0.9916992,0.0390625,0.2309571,-4.931298,4.076336,-0.6946565
1609459339,513,0.9692384,0.03466797,0.2802734,-2.519084,1.709924,-0.610687
1609459339,774,0.9765625,0.03173828,0.2583008,-2.984733,1.312977,-0.5648855
1609459340,0,0.9746094,0.07470703,0.2885742,-3.717557,15.03053,-0.6335878
1609459340,262,0.9838867,0.06884766,0.3452148,-16.21374,22.35114,-5.625954
1609459340,522,0.90625,-0.00488281,0.3676758,-29.16031,-33.45802,1.526718
1609459340,786,1.084961,-0.00292969,0.1660156,-27.0458,-30.19847,1.969466
1609459341,0,1.065918,-0.01269531,-0.03955078,-34.82443,0.6183206,0.6946565
1609459341,269,1.05957,-0.1542969,-0.0288086,-9.503817,-6.061069,32.74046
1609459341,537,1.098633,-0.1860352,-0.1010742,-2.099237,-7.351145,23.87023
1609459342,0,0.8779297,-0.5756836,-0.03222656,27.14504,1.80916,67.35878
1609459342,264,0.6928711,-0.5463867,0.05761719,82.51145,31.58015,76.14503
1609459342,523,0.3945313,-0.690918,0.5810547,7.557252,-21.68702,-16.19084
1609459342,785,0.4956055,-0.7280273,0.4003907,-20.45038,-16.67939,5.129771
1609459343,0,0.7207031,-0.652832,0.2167969,-31.93893,-27.40458,-31.59542
1609459343,266,0.7651367,-0.5361328,0.06933594,-6.61832,-26.40458,-13.71756
1609459343,531,0.7050782,-0.8300782,-0.1879883,-26.48092,4.335878,36.35115
1609459343,794,0.4912109,-0.8388672,-0.1445313,-37.13741,38.44275,16.82443
1609459344,0,0.3613281,-0.6801758,-0.01367188,-40.93893,57.37404,12.21374
1609459344,313,0.2631836,-1.158691,-0.1469727,42.61069,-49.32061,16.37405
1609459344,576,0.2197266,-1.051758,-0.01708984,35.0229,-18.83206,7.007634
1609459344,838,0.3291016,-0.9296875,-0.08496094,-25.40458,10.0,-25.36641
1609459345,0,0.5136719,-0.621582,-0.04296875,-0.648855,-26.9542,-2.671756
1609459345,267,0.2387696,-0.8510742,0.09082031,-1.923664,-2.847328,14.23664
1609459345,535,0.3769531,-1.249512,0.08544922,-13.79389,-0.9007633,5.908397
1609459346,0,0.3671875,-0.9018555,-0.1855469,50.31298,-57.87786,8.122137
1609459346,273,0.2729492,-0.8652344,0.0546875,-19.0,37.0916,-29.03053
1609459346,541,0.9072266,-0.5761719,-0.3017578,-3.877863,-28.79389,-31.10687
1609459346,810,0.2392578,-0.7045898,0.1206055,-16.1145,38.19847,30.0229
1609459347,0,0.4902343,-0.8330078,0.09033203,2.908397,-17.53435,-0.351145
1609459347,268,0.4492188,-0.8554687,-0.04492188,-2.305344,-20.47328,8.229008
1609459347,538,0.2553711,-0.7807617,-0.1245117,8.297709,-13.36641,1.938931
1609459347,811,0.4897461,-1.385254,-0.04589844,-27.59542,58.87786,-2.267176
1609459348,0,0.1948242,-0.7456055,0.02978516,-16.83969,46.68702,-8.854961
1609459348,266,0.3530274,-1.025879,0.06640625,3.641222,-33.40458,14.09924
1609459348,582,0.3515625,-0.8422851,-0.1108398,55.1832,-76.61832,0.9312977
1609459349,0,0.3691406,-0.9008789,0.1689453,41.96183,-37.74046,-21.30534
1609459349,305,0.4448242,-0.6899415,0.2006836,0.2366412,-10.54962,11.07633
1609459349,557,0.4902343,-0.8579102,0.2387696,9.557252,-35.86259,17.01527
1609459349,804,0.2197266,-0.9414063,0.121582,-7.961833,-27.32825,-1.541985
1609459350,0,0.4008789,-0.9335938,0.07324219,8.091603,-17.26718,13.0916
1609459350,250,0.487793,-0.9072266,0.1376953,-28.36641,41.58015,-4.335878
1609459350,499,0.3666992,-0.8808594,0.07373047,-10.03053,26.89313,-2.793893
1609459350,756,0.3505859,-0.9267578,0.144043,1.328244,-0.3206107,1.015267
1609459351,0,0.2714844,-0.9179687,0.09326172,-4.496183,29.75572,-5.435114