Epoch_time_s,milliseconds_elapsed,Ax,Ay,Az,Gx,Gy,Gz
1609459203,0,-0.159668,-0.8320313,0.3647461,-2.793893,5.076336,6.748092
1609459203,216,-0.2153321,-0.8740234,0.3774414,-4.007634,4.259542,3.259542
1609459204,0,-0.2172852,-0.8476563,0.3520508,-6.10687,7.80916,-0.03816794
1609459204,218,-0.1474609,-0.8476563,0.3364258,3.435115,-24.61832,-11.87023
1609459204,436,-0.1689453,-0.8403319,0.4013672,-4.664122,2.351145,-1.633588
1609459204,655,-0.1367188,-0.8432616,0.3803711,-3.358778,2.839695,0.1908397
1609459204,876,-0.1884766,-0.9179687,0.4453125,27.0916,7.068702,31.79389
1609459205,0,-0.4257813,-0.4985352,0.5302734,6.015267,-64.45802,41.83969
1609459205,259,-0.265625,-0.5644531,0.5488281,-29.36641,-73.34351,14.24428
1609459205,523,0.08105469,-1.044922,0.4580078,-47.99237,-114.7176,-24.0687
1609459206,0,0.5571289,-0.9399415,0.1220703,-53.27481,23.03817,10.59542
1609459206,253,0.3364258,-1.251953,0.2104492,-35.9771,26.99237,6.763359
1609459206,509,0.2963867,-0.8632813,0.0288086,-20.17557,74.22137,-25.74809
1609459206,760,0.1225586,-0.7246094,0.05517578,-15.80916,79.68702,11.44275
1609459207,0,-0.3129883,-0.7197266,0.1386719,-27.41985,66.19084,-3.885496
1609459207,253,-0.2211914,-1.148926,-0.1464844,-10.87023,49.35115,-6.068702
1609459207,508,-0.0234375,-1.044434,-0.1005859,5.778626,-4.435114,24.21374
1609459207,768,-0.1933594,-0.9511718,-0.0288086,12.12214,16.31298,-8.511451
1609459208,0,0.1894531,-1.039551,0.06689453,22.61832,47.1832,-23.12214
1609459208,262,-0.05029297,-0.8476563,0.203125,-4.427481,6.763359,8.671756
1609459208,522,-0.1894531,-1.095215,0.2099609,-41.98473,-7.251908,21.61069
1609459208,782,0.01123047,-0.9140625,-0.1308594,0.4198473,-10.19084,12.80916
1609459209,0,-0.1884766,-1.070313,0.00488281,19.27481,-7.778626,-0.2977099
1609459209,256,0.00292969,-0.9907227,0.03710938,1.0,-0.5038168,-10.91603
1609459209,516,-0.1767578,-0.9057616,0.2114258,-7.763359,22.47328,5.816793
1609459209,778,-0.02490234,-1.056152,-0.2167969,-18.29008,-114.3664,17.70229
1609459210,0,-0.1831055,-0.9648438,-0.04296875,13.32824,-36.27481,-1.10687
1609459210,266,-0.01025391,-0.8779297,0.01416016,-6.320611,-39.09924,-14.32061
1609459210,527,-0.1245117,-0.862793,0.1674805,-2.541985,29.92366,-6.427481
1609459210,784,-0.0703125,-1.008301,-0.1074219,-33.66412,-54.70229,-8.076336
1609459211,0,-0.1699219,-0.9150391,-0.1025391,0.8396946,-15.41221,16.70992
1609459211,266,0.03027344,-1.146484,0.0390625,-13.26718,87.22137,-42.94656
1609459211,532,-0.04296875,-0.8520508,0.04638672,-11.8855,18.16031,-15.41221
1609459212,0,-0.2929688,-1.273438,-0.1494141,-23.86259,-48.66412,38.29008
1609459212,268,-0.2719727,-0.796875,-0.1181641,25.20611,-32.40458,32.9771
1609459212,532,-0.3251953,-1.365234,0.04980469,-11.14504,-23.37405,-30.0916
1609459212,795,-0.2167969,-0.8281249,0.05419922,-9.916031,73.71756,-56.90839
1609459213,0,-0.04394531,-1.09668,0.07226562,-25.17557,-18.48092,-0.3816794
1609459213,265,-0.06933594,-0.8393555,-0.2446289,22.56489,-66.28244,39.87786
1609459213,532,-0.1738281,-1.026367,0.02832031,16.58779,-38.72519,-1.59542
1609459213,802,-0.1655273,-0.7900391,0.01367188,-21.12977,-52.90839,-34.55725
1609459214,0,-0.1054688,-1.041016,0.08691406,-33.20611,-42.55725,-7.358778
1609459214,317,0.02929688,-0.8769531,-0.296875,25.51908,-77.74809,30.1145
1609459214,584,-0.2148438,-1.12793,0.01904297,1.854962,-53.22137,0.3129771
1609459215,0,-0.1166992,-0.8496094,0.04052734,-1.824428,-8.030535,-31.87023
1609459215,267,-0.04492188,-0.9580078,0.0571289,-13.72519,-64.1145,2.183206
1609459215,535,0.1796875,-1.046875,-0.1787109,21.25954,-125.5115,45.94656
1609459215,807,-0.2304688,-1.036621,0.01025391,5.267176,-38.80916,13.45802
1609459216,0,0.0415039,-1.019043,0.01806641,-7.19084,-6.793893,-12.45802
1609459216,270,-0.09423828,-0.8867187,0.1083984,-7.160306,-22.72519,1.778626
1609459216,540,-0.3256836,-0.9604492,-0.3671875,-33.87786,-113.4275,4.129771
1609459216,809,-0.2397461,-0.9692384,-0.1987305,17.98473,-82.32825,12.96947
1609459217,0,0.0522461,-0.6933594,0.05664062,-15.78626,-62.98473,-31.0229
1609459217,277,-0.01757812,-0.8789063,0.09619142,-3.862595,-22.29008,-17.55725
1609459217,581,-0.03759766,-1.051758,-0.340332,-12.34351,-137.0534,16.01527
1609459218,0,-0.0756836,-1.020996,-0.184082,12.72519,-53.92366,5.473282
1609459218,254,-0.2949219,-1.19043,0.140625,-1.572519,-11.94656,-6.244275
1609459218,507,0.00488281,-0.8979492,0.1787109,-11.61069,-47.49618,4.38168
1609459218,806,-0.00439453,-0.9023438,-0.4804688,-42.53435,-159.1603,-23.45802
1609459219,0,-0.1005859,-0.9257813,-0.2104492,0.03053435,-127.5115,26.16031
1609459219,250,-0.05322266,-0.7451172,0.0522461,-13.0458,8.083969,-72.27481
1609459219,502,0.01660156,-0.9340819,0.1489258,-9.656488,-4.793893,-35.12977
1609459219,752,0.8334961,-1.626465,0.00195312,75.54198,45.60305,118.5496
1609459220,0,0.2153321,-0.5068359,-0.1445313,18.99237,102.0153,-37.32824
1609459220,256,0.08837892,-0.9072266,0.1240234,-14.9313,35.37405,-64.65649
1609459220,511,0.7407227,-1.566895,-0.09863281,61.16031,-44.25191,124.4275
1609459220,767,0.1079102,-0.6293945,-0.01708984,-6.687023,44.51908,-18.69466
1609459221,0,0.1616211,-0.8515625,0.03320312,-1.229008,62.12977,-96.96183
1609459221,254,0.8544922,-1.572266,-0.0649414,67.56489,-2.786259,139.1069
1609459221,512,0.04980469,-0.8676758,-0.0209961,4.984733,52.26717,-24.89313
1609459221,769,0.2685547,-0.8476563,0.07324219,-15.71756,56.76336,-73.771
1609459222,0,0.7929687,-1.686035,-0.2578125,62.15267,-44.58779,108.9313
1609459222,261,0.09521483,-1.006348,0.05957031,-7.0,46.12214,10.68702
1609459222,518,0.1362305,-0.9946289,0.05664062,-29.81679,-0.4885496,-80.51908
1609459222,825,0.1186523,-1.312988,-0.2285156,68.19084,-35.54198,67.43511
1609459223,0,-0.01855469,-1.005371,0.02392578,-44.9313,-88.01527,-55.76336
1609459223,256,-0.1689453,-0.5556641,-0.04101562,1.732824,-50.38931,-30.74809
1609459223,518,0.1704102,-1.272461,-0.2548828,74.48092,54.55725,105.9084
1609459223,778,-0.02978516,-1.446777,-0.07861328,-77.86259,-62.41985,-49.0
1609459224,0,0.0859375,-0.6181641,-0.1201172,-2.877863,-109.9847,-9.19084
1609459224,255,0.4355469,-0.7998047,-0.2924805,16.68702,-66.06107,27.90076
1609459224,511,-0.2827148,-0.9516602,0.03466797,9.374045,-55.0229,32.73283
1609459225,0,-0.168457,-0.8994141,0.06738281,-5.374046,-16.22137,-42.23664
1609459225,263,0.1196289,-0.9731445,0.05859375,-24.54962,61.29771,-63.44275
1609459225,525,0.00927734,-0.9599609,0.00341797,-15.42748,-39.8168,6.083969
1609459225,788,-0.02978516,-1.108887,-0.4746093,23.62595,-181.9924,54.32824
1609459226,0,-0.2392578,-0.9462891,-0.0727539,26.96947,-69.60305,56.59542
1609459226,263,0.02197266,-0.8159181,0.06103516,-32.9084,-15.18321,-101.1298
1609459226,526,0.1831055,-1.056641,0.03076172,-23.47328,32.0687,-46.56488
1609459226,787,0.02294922,-1.061035,-0.125,-15.53435,-119.1298,67.45802
1609459227,0,-0.3046875,-0.8305664,-0.1015625,27.26717,-15.16794,58.34351
1609459227,262,-0.3642578,-1.155273,0.06201172,-20.22137,28.87023,-93.15268
1609459227,528,-0.0258789,-0.8715819,0.05371094,-31.54198,55.01527,-70.15267
1609459227,796,0.02685547,-1.084961,0.046875,-21.26718,-12.8626,25.59542
1609459228,0,0.2260742,-1.04541,-0.1323242,36.73283,-28.82443,70.38168
1609459228,268,-0.06738281,-1.037598,-0.105957,11.89313,-40.87786,-1.503817
1609459228,532,0.08398438,-1.042969,0.1489258,-6.694657,108.0305,-54.74809
1609459229,0,-0.1582031,-0.8964844,0.1064453,-10.50382,-0.9618321,-22.0458
1609459229,265,0.3603516,-1.163086,-0.137207,-53.75573,-89.9771,-14.82443
1609459229,531,0.1206055,-0.8256836,-0.2080078,19.83206,-20.13741,53.37404
1609459229,800,-0.2270508,-0.9409181,-0.01171875,24.38931,-4.412214,24.64122
1609459230,0,0.1635742,-0.8271483,-0.00585938,-21.56489,4.465649,-46.45038
1609459230,267,0.00292969,-0.9404297,0.08984375,-9.251908,57.70992,-27.28244
1609459230,535,0.06054688,-0.9536133,-0.0727539,-31.34351,-45.46565,17.99237
1609459230,804,-0.2353516,-0.8608398,-0.1445313,23.77099,-27.03817,53.89313
1609459231,0,-0.08642578,-1.26709,-0.01708984,-12.8626,100.4809,-51.59542
1609459231,317,-0.1137695,-0.9296875,0.06103516,2.740458,90.35114,-60.58015
1609459231,586,0.1484375,-0.7338867,0.03564453,-27.98474,-57.67176,-22.59542
1609459232,0,-0.1259766,-0.7666016,-0.1992188,-3.557252,-53.99237,77.0
1609459232,308,0.4589843,-0.8334961,-0.2226562,1.206107,1.80916,-66.27481
1609459232,556,0.2612305,-1.222656,-0.3979492,-8.541985,-13.24428,32.0458
1609459232,804,0.04052734,-1.195801,-0.3652344,-55.03053,-23.72519,27.05343
1609459233,0,0.07617188,-1.181152,-0.5688477,-1.854962,-0.2519084,-102.9847
1609459233,256,-0.01757812,-0.2856445,-0.1079102,76.29008,71.83969,18.32825
1609459233,506,0.3222656,-0.9819336,-0.137207,16.45038,-54.36641,34.85496
1609459233,758,0.2436523,-1.176758,-0.1289063,-12.96183,64.38931,86.52672
1609459234,0,-0.1762695,-1.146484,-0.3828125,-71.0458,-21.37405,-4.145038
1609459234,255,0.2983398,-0.9760742,-0.125,31.53435,40.27481,-104.3511
1609459234,512,-0.00634766,-0.6899415,-0.2397461,50.87023,38.9771,-6.755725
1609459234,764,0.2670898,-1.142578,-0.265625,1.931297,32.77863,80.16031
1609459235,0,-0.01220703,-1.274902,-0.2573242,-41.76336,14.48855,49.85496
1609459235,254,0.1303711,-1.119629,-0.4936524,-29.51145,-40.64885,-47.78626
1609459235,553,0.05419922,-0.671875,-0.1831055,37.13741,25.37405,-79.13741
1609459235,815,0.1508789,-0.8735351,-0.2602539,-6.122138,-75.1145,21.43511
1609459236,0,0.1992188,-1.121094,-0.2207031,-14.05344,8.442748,52.2061
1609459236,256,-0.06347656,-1.404785,-0.3144531,-39.92366,-17.66412,26.06107
1609459236,515,-0.02929688,-1.024902,-0.4765625,-12.12977,-1.083969,9.549619
1609459236,769,-0.06445312,-0.9125977,-0.2788086,56.24427,4.412214,-39.93893
1609459237,0,0.00634766,-0.8710938,-0.09033203,38.91603,42.61832,-14.1374
1609459237,255,-0.05419922,-0.9584961,0.06054688,-1.770992,-4.80916,16.10687
1609459237,514,0.04394531,-1.035645,-0.0444336,-4.870229,22.53435,-1.694656
1609459237,772,-0.08984375,-0.918457,0.06982422,-4.763359,63.50382,-7.671755
1609459238,0,-0.09375,-0.9799805,0.00976562,-22.12977,-18.0916,14.87023
1609459238,259,-0.02050781,-0.9892578,-0.02929688,6.183207,-16.71756,-0.1679389
1609459238,518,0.1166992,-1.03418,-0.07470703,3.389313,-4.389313,5.427481
1609459238,777,-0.0727539,-0.9409181,-0.06738281,-3.847328,2.51145,-7.648855
1609459239,0,-0.1005859,-0.9838867,-0.0234375,-10.18321,-3.083969,4.80916
1609459239,261,-0.1171875,-0.9780273,-0.01171875,9.534351,41.36641,5.954198
1609459239,568,-0.1796875,-0.9389649,-0.01074219,13.48855,46.25954,-5.603054
1609459240,0,-0.05859375,-0.9960938,-0.01953125,-8.198473,-11.49618,2.89313
1609459240,262,-0.1611328,-0.9765625,-0.04833984,-5.740458,4.335878,-3.267176
1609459240,527,-0.1977539,-0.9848633,0.01171875,5.274809,15.79389,-2.48855
1609459240,788,-0.1855469,-0.9438477,0.01806641,-3.648855,-0.6412213,-2.007634
1609459241,0,-0.2548828,-0.9101563,0.03320312,-3.496183,-1.625954,-4.91603
1609459241,261,-0.2446289,-0.8745116,0.09472656,-8.160305,6.770992,2.129771
1609459241,521,-0.1665039,-1.168945,-0.04882812,-37.07634,19.64886,7.778626
1609459241,781,-0.199707,-0.8442384,-0.2128906,33.17557,40.07634,6.343512
1609459242,0,-0.1835938,-1.100586,-0.1357422,20.30534,23.42748,-32.44275
1609459242,265,0.2485352,-0.9204102,-0.01318359,7.40458,124.5343,-16.96183
1609459242,535,-0.1743164,-0.8901367,0.1669922,-19.77099,21.26718,-1.068702
1609459242,801,-0.05908203,-1.053711,-0.1157227,10.34351,-27.54962,35.66412
1609459243,0,-0.2402344,-0.9003906,-0.03271484,9.335877,-20.0,21.9771
1609459243,265,-0.09179688,-0.8964844,-0.01025391,-7.572519,21.19847,-73.49619
1609459243,536,-0.03076172,-0.8334961,0.1494141,6.473282,13.52672,-30.50382
1609459244,0,0.1352539,-1.133301,-0.2290039,7.053435,-81.9771,42.0458
1609459244,268,-0.1640625,-0.9780273,-0.08544922,17.76336,-47.34351,23.33588
1609459244,537,0.1220703,-1.02832,-0.0366211,-19.29771,-25.66412,-45.77099
1609459244,805,-0.00976562,-0.9550782,0.06054688,-8.007633,9.366412,-13.1145
1609459245,0,-0.02832031,-1.123047,-0.4272461,-5.80916,-144.6565,42.57252
1609459245,265,-0.1655273,-1.014648,-0.07861328,23.61069,-38.40458,30.25954
1609459245,535,0.5371094,-1.128418,0.1367188,-25.35878,39.41985,-42.09924
1609459245,804,-0.05419922,-0.8583983,0.15625,-5.900764,-9.19084,-17.90076
1609459246,0,-0.2426758,-0.9819336,-0.4990234,-0.7480916,-175.1374,6.427481
1609459246,304,0.07617188,-1.262695,-0.1582031,21.46565,-104.0,-20.9084
1609459246,555,0.1572266,-0.8706055,-0.01074219,5.290076,15.87786,-31.75572
1609459247,0,-0.1225586,-0.8647461,0.1206055,-12.27481,-81.54198,13.59542
1609459247,249,-0.00195312,-1.266113,-0.2915039,-8.389313,-185.7099,65.0229
1609459247,509,-0.3598633,-0.9477539,-0.05664062,12.70229,-59.23664,28.39695
1609459247,762,0.2080078,-1.263184,-0.1108398,-38.47328,-108.2672,-51.9542
1609459248,0,0.00146484,-0.8461915,0.1523438,10.25191,15.23664,-20.72519
1609459248,304,0.0756836,-1.182129,-0.3359375,16.56489,-152.3359,76.78626
1609459248,563,-0.2993164,-0.9511718,-0.04345703,16.75573,-42.93893,34.9771
1609459248,815,0.1899414,-1.188965,0.07470703,-39.9084,-15.71756,-49.83969
1609459249,0,-0.01318359,-0.9531249,0.07958984,-8.778625,13.48855,-17.9313
1609459249,256,-0.1713867,-1.135254,-0.3881836,-3.969465,-153.5191,32.38168
1609459249,512,-0.1757812,-1.009277,-0.08154297,30.17557,-43.86259,58.13741
1609459249,764,0.02734375,-1.059082,0.08105469,-48.40458,-11.28244,-38.58779
1609459250,0,-0.07666016,-0.9580078,0.07910156,-8.145039,51.57252,-46.51908
1609459250,257,0.0444336,-1.148926,-0.2246094,-15.53435,-125.4657,35.70992
1609459250,511,-0.1142578,-0.9697266,-0.09228517,18.0687,-41.0458,33.40458
1609459250,767,-0.140625,-0.7304687,0.2636719,-14.87786,12.80153,-49.8855
1609459251,0,0.2441406,-0.7651367,0.06738281,5.801527,-68.8855,-10.74809
1609459251,259,0.284668,-1.066895,-0.06591797,-28.54962,-71.87786,19.49618
1609459251,519,0.1352539,-0.9003906,-0.2006836,-0.1984733,66.77863,-3.312977
1609459251,775,0.1928711,-1.157227,-0.2348633,-24.77863,23.83206,-43.29771
1609459252,0,0.296875,-0.9125977,-0.1606445,-12.05344,13.38931,-11.58015
1609459252,307,0.4448242,-1.016602,-0.1625977,11.61069,25.1145,-13.56489
1609459252,565,0.4487305,-1.03125,0.03955078,28.63359,26.09924,19.07634
1609459253,0,0.2333984,-1.044434,0.1948242,21.17557,53.48855,30.68702
1609459253,258,-0.09667969,-0.949707,0.2358398,-11.9542,46.96947,16.23664
1609459253,519,-0.1914062,-0.9414063,0.2285156,-11.21374,-0.9847328,2.534351
1609459253,784,-0.08300781,-0.9511718,0.1958008,-5.48855,-15.0458,3.755725
1609459254,0,-0.1445313,-0.918457,0.2333984,5.061069,21.25954,2.259542
1609459254,257,-0.1035156,-0.9350585,0.2236328,0.4656488,-2.473282,3.946565
1609459254,516,-0.08105469,-0.96875,0.2387696,-5.847328,9.145039,3.099237
1609459254,777,-0.168457,-0.8447266,0.3686524,5.114504,-11.81679,-12.28244
1609459255,0,-0.1166992,-0.9248048,0.3286133,-0.7251908,-31.10687,-29.94657
1609459255,265,0.378418,-1.086426,0.1054688,-46.35115,-15.79389,4.206107
1609459255,533,0.1713867,-1.156738,0.01757812,-33.9542,19.24427,19.79389
1609459255,798,0.01123047,-1.033203,-0.02441406,-13.23664,-3.625954,5.221374
1609459256,0,0.07763672,-0.7475585,-0.1162109,11.71756,-46.17557,-8.511451
1609459256,261,0.02929688,-0.8417969,0.07763672,27.56489,6.465649,10.10687
1609459256,575,0.1650391,-0.9692384,0.08740233,0.4427481,66.32825,18.45802
1609459257,0,-0.1254883,-0.9711915,0.08837892,-18.60305,44.83206,-3.068702
1609459257,267,-0.1225586,-0.9462891,0.1044922,-12.50382,17.70992,5.977099
1609459257,533,0.08837892,-0.9916992,-0.05322266,9.114504,-42.08397,-9.419847
1609459257,801,0.09521483,-0.9887695,0.0209961,6.40458,4.282443,6.496184
1609459258,0,-0.1064453,-0.8964844,0.1362305,-0.2900764,87.25954,-25.38931
1609459258,267,-0.2080078,-0.9150391,0.144043,-21.69466,18.42748,-29.54962
1609459258,531,0.293457,-1.110352,-0.2929688,-30.07634,-67.61069,16.48855
1609459258,798,-0.09179688,-0.8876952,-0.1542969,25.29008,-16.67175,47.62595
1609459259,0,-0.1044922,-1.206055,-0.01953125,-0.8167939,3.541985,-38.28244
1609459259,269,-0.02441406,-0.8295898,0.05175781,-7.374046,77.16031,-36.64122
1609459259,540,-0.1464844,-1.27832,-0.07177734,-41.67176,-27.03817,7.992366
1609459259,809,0.04003906,-0.8852539,-0.125,12.08397,-54.83206,61.69466
1609459260,0,-0.1328125,-1.171875,-0.1137695,16.13741,2.503817,-33.45038
1609459260,270,-0.06542969,-0.8642578,0.05371094,-3.129771,86.60305,-46.94656
1609459260,539,-0.1064453,-1.080566,0.1240234,-34.61069,-4.419847,-9.114504
1609459261,0,-0.1259766,-0.8979492,-0.1005859,27.9542,-15.35114,49.68702
1609459261,251,-0.0834961,-1.362793,-0.00341797,-4.824428,-0.351145,-18.29771
1609459261,504,-0.1337891,-0.8110351,0.0444336,1.419847,56.48855,-44.00763
1609459261,756,-0.1201172,-0.9897461,0.09130858,-29.54198,2.870229,-10.17557
1609459262,0,0.3520508,-0.9838867,-0.1342773,9.78626,-51.53435,47.48855
1609459262,251,-0.04589844,-0.6572266,-0.08007812,16.19847,0.8931297,19.00763
1609459262,503,-0.5668945,-1.310547,0.02246094,-53.09923,-116.8626,-27.96947
1609459262,753,-0.3491211,-0.7739258,0.06396484,0.9541985,18.21374,-36.96947
1609459263,0,0.04101562,-1.074707,-0.2182617,-17.62595,-84.55725,4.19084
1609459263,257,0.04394531,-0.9755859,-0.3120117,17.30534,-17.18321,6.59542
1609459263,510,0.03466797,-0.7231445,0.1464844,-15.56489,-37.00763,-27.27481
1609459263,767,0.1186523,-0.9790039,0.0390625,-12.64886,-11.39695,-10.55725
1609459264,0,0.3457031,-0.9633789,-0.2285156,11.0687,-70.92367,12.75572
1609459264,252,0.1621094,-0.9487305,-0.1645508,-0.2137404,33.74046,22.63359
1609459264,506,-0.06298828,-1.040527,-0.04052734,-19.65649,44.22901,-33.41985
1609459264,761,0.2207031,-0.8525391,-0.1074219,0.1984733,110.9466,-36.40458
1609459265,0,-0.1621094,-0.7827149,0.06445312,18.68702,22.63359,30.24428
1609459265,256,0.7763672,-0.3955078,0.00976562,-22.17557,190.3588,-50.73283
1609459265,512,0.8022461,0.3295898,0.3320313,46.22137,25.43511,-224.084
1609459266,0,1.516602,0.3071289,-0.5664063,-67.93893,37.29771,-40.39695
1609459266,258,1.131836,0.05859375,-0.3427734,33.47328,-47.7939,45.09161
1609459266,514,1.048828,-0.2998047,-0.5478516,15.10687,37.23664,-7.290076
1609459266,771,1.078125,0.05175781,-0.6025391,10.87786,-25.93893,37.16031
1609459267,0,0.8867187,0.05126953,-0.7602539,-9.099236,-18.38168,-16.39695
1609459267,264,0.7924805,0.00585938,-0.6513672,0.8625955,-25.98474,-3.259542
1609459267,524,0.7641602,-0.02197266,-0.7026367,5.244275,-4.076336,8.419847
1609459267,790,0.7949218,-0.04736328,-0.6928711,-8.282443,14.58015,5.38168
1609459268,0,0.8603517,-0.00097656,-0.690918,-1.068702,4.175572,-4.21374
1609459268,259,1.011719,0.02832031,-0.7216797,-2.221374,61.70229,-8.916031
1609459268,519,1.082031,0.02636719,-0.4804688,-4.282443,14.79389,-11.83969
1609459268,780,0.9174805,0.02197266,-0.5131836,-22.82443,39.21374,11.14504
1609459269,0,1.018066,-0.04052734,-0.2026367,-9.511451,144.6107,-41.15267
1609459269,313,0.7509766,0.2084961,-0.1806641,-16.9542,11.05344,-10.48092
1609459269,574,1.036133,0.1787109,-0.1640625,4.38168,11.83206,10.44275
1609459269,840,0.6748047,0.1074219,0.1166992,-80.90839,134.9924,-35.25954
1609459270,0,0.9345703,0.1298828,-0.02441406,12.29771,-37.42748,13.23664
1609459270,262,1.055176,0.2871094,-0.125,-1.984733,1.564886,43.33588
1609459270,527,0.9448242,-0.09277344,0.1147461,3.687023,6.48855,78.71756
1609459271,0,0.8652344,-0.4858398,0.09863281,-8.458015,0.4580153,59.57252
1609459271,271,0.7109375,-0.6391602,0.06835938,3.396947,24.79389,58.31298
1609459271,539,0.00976562,-0.96875,-0.1171875,-3.19084,4.450382,65.89313
1609459271,808,0.06542969,-0.9892578,0.2192383,21.30534,41.8168,37.77863
1609459272,0,-0.1142578,-0.9799805,-0.04785156,-31.16031,41.52672,-35.54198
1609459272,271,0.2441406,-0.9296875,0.1069336,2.503817,33.10687,-68.58778
1609459272,538,0.5068359,-0.8696289,0.09179688,-39.57252,7.72519,-49.0
1609459272,805,0.7578125,-0.8085938,-0.1728516,-31.20611,10.22901,-36.80153
1609459273,0,0.7817383,-0.8720703,-0.1860352,-12.10687,8.519084,10.89313
1609459273,267,0.6679688,-0.8666992,-0.1245117,-12.38931,18.84733,42.03053
1609459273,587,0.3540039,-0.7792969,-0.08789062,-0.5114504,62.57252,62.66412
1609459274,0,0.1054688,-0.8261718,0.09667969,10.81679,87.82442,20.86259
1609459274,271,-0.01074219,-1.001465,0.1450195,-20.83206,36.27481,-6.938931
1609459274,541,0.0336914,-0.9951172,0.1245117,-26.58015,46.15267,-27.52672
1609459274,811,0.01123047,-0.9555664,0.121582,-6.763359,27.53435,-10.44275
1609459275,0,0.1264648,-0.9926758,-0.00927734,-15.45038,-5.175572,1.664122
1609459275,266,0.1630859,-0.9555664,-0.1352539,-7.412214,-18.12977,5.496184
1609459275,568,0.06103516,-1.204102,-0.00097656,0.6793893,49.73283,-9.175572
1609459275,816,0.8476563,-0.855957,-0.125,-24.07634,25.0458,-25.32825
1609459276,0,0.1992188,-0.7973633,0.06298828,-10.90076,75.55725,14.25191
1609459276,248,0.1098633,-0.9990234,0.1333008,-40.36641,0.5572519,6.167939
1609459276,499,0.1601563,-0.9086915,-0.09082031,-1.70229,50.31298,37.35115
1609459276,747,-0.06640625,-0.9335938,-0.08398438,17.94657,-16.44275,7.236641
1609459277,0,-0.1445313,-0.8759766,-0.0649414,11.0229,38.46565,-47.9771
1609459277,251,-0.04394531,-0.7836915,0.1538086,-12.23664,32.72519,-22.54962
1609459277,505,0.04589844,-1.079102,0.1953125,-45.38168,34.06107,-23.56489
1609459277,810,0.0415039,-0.9453125,-0.1123047,14.55725,-18.0687,39.35878
1609459278,0,-0.06591797,-1.01709,-0.00732422,25.83206,-23.92366,9.603053
1609459278,253,0.3466797,-0.9555664,-0.05664062,-18.67175,21.84733,-30.83969
1609459278,509,0.1689453,-0.9096681,0.1210938,-19.29771,95.8855,-21.94657
1609459279,0,0.3227539,-0.9243164,-0.1240234,-22.03817,17.79389,3.061069
1609459279,251,0.15625,-0.9340819,-0.03808594,4.335878,50.8168,0.7251908
1609459279,515,0.1962891,-1.131348,-0.1435547,-4.923664,33.21374,-25.16031
1609459279,773,0.1870117,-0.9472656,0.0522461,-6.977099,124.4657,-1.328244
1609459280,0,-0.08544922,-0.9194336,0.2080078,-24.52672,58.55725,-18.72519
1609459280,261,0.355957,-1.012695,-0.1533203,-4.793893,-33.94656,20.51908
1609459280,515,-0.00732422,-0.9931641,-0.046875,31.67939,-12.46565,24.66412
1609459280,770,0.331543,-0.7675782,0.01855469,-0.648855,24.00763,-32.05344
1609459281,0,0.06152344,-0.8632813,0.1220703,-19.66412,57.80152,-28.08397
1609459281,258,0.1782227,-1.366699,-0.09130858,-44.58779,37.59542,4.21374
1609459281,518,0.190918,-0.9414063,-0.1274414,25.34351,58.54198,29.10687
1609459281,780,0.03808594,-1.061035,0.01074219,3.167939,24.94657,-6.664122
1609459282,0,0.1777344,-0.8876952,0.02001953,-9.312977,156.2748,-14.22137
1609459282,261,0.01318359,-0.9531249,0.184082,-25.15267,40.51908,-9.496183
1609459282,519,0.3808594,-1.04834,-0.06103516,-11.29771,114.2443,27.83206
1609459282,779,-0.1274414,-0.9345703,0.0600586,8.435115,59.03817,0.4198473
1609459283,0,0.2338867,-1.07666,0.1894531,4.137404,82.51908,-25.51145
1609459283,261,0.1342773,-0.8789063,0.137207,-12.67939,10.87786,-10.24428
1609459283,524,0.1347656,-1.005371,0.1337891,-18.80916,-0.5267176,3.053435
1609459283,789,0.2788086,-1.071289,-0.1665039,-1.748092,-39.9084,7.374046
1609459284,0,0.08105469,-0.8500977,-0.08251953,15.20611,-8.465649,4.259542
1609459284,268,0.1352539,-1.164063,0.0625,-15.64122,-72.28244,-10.45038
1609459284,537,0.1098633,-0.7568359,0.08740233,-0.1679389,25.91603,-2.312977
1609459285,0,0.1757812,-1.288574,-0.0415039,-27.70992,26.75572,10.9084
1609459285,265,0.1259766,-0.8959961,-0.1357422,-0.7175572,48.84733,17.13741
1609459285,532,-0.0390625,-1.019043,-0.2514648,19.00763,61.07634,1.931297
1609459285,801,-0.00634766,-1.057129,0.2543945,-6.89313,35.16031,-37.25191
1609459286,0,0.1064453,-0.9990234,0.07763672,3.152672,56.0687,-3.465649
1609459286,316,0.09570312,-0.8330078,0.0493164,56.75573,92.35114,12.57252
1609459286,579,0.2509766,-1.470703,0.1137695,77.87786,-37.09924,-22.47328
1609459286,844,-2.611816,0.7314453,0.1577148,49.09923,174.458,-87.66413
1609459287,0,-2.22998,0.796875,0.09863281,81.03053,109.7099,-68.39695
1609459287,267,-0.5048828,0.7563477,-0.1987305,-18.77863,8.572519,-86.24428
1609459287,537,-0.8164063,0.03759766,-0.2768555,-6.763359,9.625955,43.9771
1609459288,0,-0.8129884,0.1411133,-0.3837891,10.23664,13.27481,-2.786259
1609459288,270,-0.8525391,0.078125,-0.2802734,17.9542,-9.358779,4.374046
1609459288,543,-0.9296875,0.09667969,-0.3525391,-6.221374,6.908397,6.877862
1609459288,811,-0.9204102,0.1196289,-0.3486328,-4.312977,-3.40458,-2.938931
1609459289,0,-0.9243164,0.1279297,-0.3496094,-4.312977,3.320611,-1.442748
1609459289,274,-0.9555664,0.0703125,-0.3666992,-7.48855,-12.9771,-1.007634
1609459289,540,-0.9726563,0.09814453,-0.3232422,-8.923664,-5.068702,-0.7633588
1609459289,812,-0.9345703,0.1181641,-0.3417969,0.3435115,7.061069,0.7633588
1609459290,0,-0.9213867,0.1347656,-0.3388672,-4.366412,-3.969465,-1.068702
1609459290,252,-0.9213867,0.1333008,-0.3398438,-3.587786,0.6412213,-1.908397
1609459290,551,-0.9233398,0.1166992,-0.3833008,-4.175572,2.923664,-1.152672
1609459291,0,-0.9169922,0.1279297,-0.3300781,-5.007634,3.923664,-1.587786
1609459291,247,-0.9409181,0.1337891,-0.3735352,-2.70229,-19.64122,-15.80153
1609459291,498,-0.9521483,0.03564453,-0.2939453,-3.519084,-3.770992,-13.44275
1609459291,752,-1.017578,-0.1225586,-0.2573242,32.25191,-36.0229,-35.65649
1609459292,0,-1.024902,-0.2421875,-0.1079102,5.343512,-42.12977,-62.12977
1609459292,254,-1.347168,-0.1704102,-0.05908203,3.671756,-19.66412,-46.87786
1609459292,514,-0.7099609,-0.472168,0.2231446,-40.19084,-158.0458,-23.63359
1609459292,767,-0.08496094,-0.7075195,0.4868164,-18.90076,-75.01527,-9.839695
1609459293,0,-0.05810547,-0.6904297,0.5102539,-12.16031,-34.0916,-32.99237
1609459293,252,0.04589844,-0.7060547,0.6054688,-22.81679,-69.69466,-90.0687
1609459293,508,0.9643555,-0.590332,0.1430664,-12.10687,-11.1374,-66.70992
1609459293,765,1.041504,-0.765625,-0.1782227,-11.16794,-2.068702,42.0687
1609459294,0,0.4223633,-0.6972656,-0.08398438,-1.793893,23.54962,72.61069
1609459294,256,0.1118164,-0.5073242,-0.04101562,13.17557,-5.656488,84.46565
1609459294,513,-0.2299804,-1.07666,0.1391602,33.94656,-63.89313,62.01527
1609459294,822,-0.3422852,-0.7089844,0.5161133,20.37405,-11.81679,77.30534
1609459295,0,-0.4985352,-0.5068359,0.3901367,-19.34351,-7.083969,45.64885
1609459295,257,-0.6743164,-0.5610352,0.340332,-24.8855,-39.69466,29.83969
1609459295,513,-0.597168,-0.5708008,0.4311524,-0.7709923,-12.03817,2.312977
1609459295,770,-0.2626953,-0.7856445,0.5009766,-7.343512,19.16794,5.152672
1609459296,0,-0.2773438,-0.6621094,0.6040039,-21.75572,-4.366412,10.44275
1609459296,256,-0.5595703,-0.699707,0.5180664,-27.0458,21.37405,10.96183
1609459296,521,-0.4438476,-0.7358398,0.3339844,-19.82443,-35.87023,-16.96947
1609459296,782,-0.3417969,-0.875,0.453125,-5.175572,39.63359,-3.633588
1609459297,0,-0.4633789,-0.7426758,0.3774414,19.92366,3.862595,10.53435
1609459297,263,-0.3120117,-0.6567383,0.6704102,53.48092,29.56489,-34.75573
1609459297,522,-0.2065429,-0.628418,0.3999024,38.54198,83.56489,-91.44275
1609459298,0,-0.3232422,-0.6054688,0.5195313,-9.473283,68.46565,-90.94656
1609459298,265,-0.1625977,-1.057129,0.01220703,-43.99237,69.41985,-56.8855
1609459298,528,-0.1787109,-0.9179687,0.02832031,-19.35878,42.94656,-16.08397
1609459298,796,-0.03417969,-1.164063,-0.09521483,20.83206,41.74046,-14.54198
1609459299,0,-0.1342773,-0.7265625,0.190918,0.1908397,39.20611,6.122138
1609459299,260,-0.1811523,-0.9882813,0.2451172,-24.64122,24.78626,2.931298
1609459299,521,0.01025391,-1.013184,0.03125,18.44275,34.38168,13.60305
1609459299,788,-0.1157227,-0.9477539,0.0493164,13.54198,48.56488,-25.48855
1609459300,0,-0.02246094,-0.9311523,0.0571289,-9.641221,32.74046,-44.94656
1609459300,267,-0.05029297,-0.9091797,0.2905273,-28.01526,46.76336,-16.62595
1609459300,536,0.3120117,-1.149414,-0.2851563,-37.22901,-78.80916,0.04580153
1609459300,802,0.1923828,-0.9760742,-0.1713867,17.94657,2.48855,3.572519
1609459301,0,-0.09423828,-0.9223633,0.1381836,40.93893,55.92366,6.045802
1609459301,268,-0.04101562,-0.7827149,-0.0859375,-38.40458,-14.99237,-49.49618
1609459301,534,0.1269531,-0.8710938,-0.07910156,-25.78626,71.45038,-37.96947
1609459302,0,0.3681641,-1.072754,-0.4926758,-16.73282,-83.21374,47.80916
1609459302,274,0.08154297,-1.097168,-0.1196289,10.98473,9.091603,-10.25954
1609459302,544,0.1606445,-0.8813477,-0.08007812,-23.63359,101.8626,-51.92366
1609459302,814,0.6982422,-1.097168,-0.2666016,-19.57252,-63.92366,52.06107
1609459303,0,-0.125,-1.16748,-0.1606445,3.328244,61.52672,12.1145
1609459303,316,0.0727539,-0.9086915,0.04345703,2.900763,82.10687,-30.56489
1609459303,584,0.6098633,-1.095703,-0.3237305,22.52672,87.55725,94.70992
1609459303,853,-0.04394531,-1.004883,-0.2260742,22.47328,41.59542,2.022901
1609459304,0,0.5830078,-1.019531,-0.05029297,13.14504,76.29008,-55.16794
1609459304,304,0.3452148,-1.07373,-0.2539063,-2.740458,-103.9695,62.67175
1609459304,555,-0.07666016,-0.8891602,-0.0805664,30.0916,13.52672,34.76336
1609459305,0,0.2045898,-1.268066,-0.1782227,-75.56489,21.9084,-72.19847
1609459305,250,-0.1328125,-0.5634766,0.04052734,-41.75573,27.62595,-42.12977
1609459305,509,0.0756836,-1.080566,-0.2412109,13.32061,1.358779,43.74046
1609459305,760,0.2524414,-1.260742,0.03564453,-47.67939,-20.28244,8.854961
1609459306,0,-0.09472656,-0.8842773,0.04638672,53.9542,188.3282,-15.8626
1609459306,257,-0.2416992,-1.115723,-0.1767578,-39.67176,2.870229,-19.68702
1609459306,511,-0.05908203,-0.9326172,-0.05322266,25.63359,-9.503817,25.43511
1609459306,766,-0.09912108,-1.265137,-0.01464844,-2.984733,15.25191,-22.19084
1609459307,0,0.01660156,-0.9853517,0.04248047,-17.39695,98.86259,-46.10687
1609459307,253,-0.1123047,-0.8969727,0.1567383,-13.68702,22.36641,-6.29771
1609459307,555,0.2250977,-1.190918,-0.2563477,19.49618,-79.74809,62.40458
1609459307,806,-0.1914062,-0.9287109,-0.06982422,29.77099,-3.687023,32.94656
1609459308,0,0.06054688,-0.8481445,0.08789062,-8.358779,74.10687,-61.49618
1609459308,256,-0.02001953,-0.9311523,0.1352539,0.01526718,35.38168,-35.0458
1609459308,512,-0.04882812,-1.156738,-0.06152344,-46.36641,-101.0076,48.68702
1609459308,769,-0.04785156,-0.9140625,-0.2416992,26.67939,39.22137,35.12214
1609459309,0,-0.2060547,-0.9472656,-0.0600586,-1.89313,81.06107,-76.64122
1609459309,256,-0.1621094,-0.7871094,0.07617188,45.05344,48.67175,-44.32061
1609459309,518,0.02148438,-0.4160157,0.1225586,31.37405,-37.01527,74.27481
1609459309,774,2.570313,-1.254883,-1.938477,-14.83969,250.1298,-91.00764
1609459310,0,1.673828,0.3706055,-1.177734,-21.38168,-56.58779,-58.32824
1609459310,268,0.7348633,0.5058594,0.06640625,67.32061,-72.0229,15.17557
1609459310,528,0.8769531,-0.2998047,-0.9814452,-180.1603,35.27481,45.54962
1609459311,0,0.6601563,-0.09472656,-0.9008789,-24.28244,39.17557,19.42748
1609459311,259,0.793457,-0.02050781,-0.3706055,-5.076336,-2.694656,-11.67176
1609459311,518,0.8466797,-0.03759766,-0.5214844,6.412214,-12.38168,-12.72519
1609459311,829,1.024902,0.00927734,-0.5185547,7.480916,6.687023,-2.641221
1609459312,0,0.9145508,-0.02392578,-0.5473633,8.015267,-0.1908397,-1.908397
1609459312,261,0.8105469,-0.0336914,-0.5302734,-5.503816,6.114504,-1.244275
1609459312,519,0.8886718,0.01123047,-0.5151367,-14.48855,3.083969,1.70229
1609459312,778,1.0625,-0.04394531,-0.5068359,4.656488,-1.335878,-5.519084
1609459313,0,1.471191,0.2138672,-0.3442383,-42.96183,56.89313,-52.48092
1609459313,265,0.8403319,0.1938477,-0.07177734,20.53435,-57.67176,-9.938931
1609459313,529,1.055176,0.2099609,-0.0703125,-0.1068702,1.19084,18.54962
1609459313,794,1.139648,0.1464844,-0.1513672,2.748092,26.60305,36.66412
1609459314,0,1.093262,-0.1660156,0.01806641,6.946565,2.389313,80.09924
1609459314,265,0.7402344,-0.4868164,-0.05322266,-10.76336,21.1145,91.16031
1609459314,529,0.5976563,-0.8715819,0.09082031,40.16031,-13.61832,46.66412
1609459314,790,0.5786133,-0.7275391,0.128418,-38.53435,110.9008,-23.98474
1609459315,0,0.2607422,-0.8549805,0.3349609,-19.26718,19.10687,-39.29008
1609459315,263,0.05664062,-0.8310548,0.4912109,16.03053,76.64886,7.70229
1609459315,532,0.02392578,-0.4921875,0.543457,-35.15267,-30.65649,-70.66412
1609459316,0,0.7617187,-0.5317383,0.1743164,-37.96183,-60.47328,-76.15267
1609459316,268,0.8105469,-1.197266,0.0288086,-82.52672,75.53435,31.0458
1609459316,536,0.480957,-0.8066406,0.01953125,-30.06107,22.27481,37.25954
1609459316,802,0.3232422,-0.8530273,-0.1103516,-12.29008,9.183207,43.20611
1609459317,0,0.2001953,-0.6943359,-0.0727539,28.0687,-7.610687,18.33588
1609459317,266,0.04736328,-0.9155273,-0.01416016,7.625954,16.91603,4.770992
1609459317,533,0.1386719,-0.9321289,0.0703125,-3.206107,-22.63359,-5.167939
1609459317,801,0.2416992,-0.9741211,0.0288086,-11.19084,-15.61069,8.702291
1609459318,0,0.1425781,-1.009277,0.02441406,-6.465649,21.96947,-19.43511
1609459318,268,0.1445313,-0.9931641,-0.03710938,7.748092,-29.23664,0.2671756
1609459318,538,0.2114258,-0.9262695,0.05566406,14.34351,-11.57252,13.19847
1609459319,0,0.1816406,-0.9755859,0.09667969,-5.08397,-22.75572,-6.305343
1609459319,250,0.1875,-1.016602,0.05859375,-3.099237,9.687023,-1.458015
1609459319,499,0.1621094,-0.9804687,0.02978516,-4.412214,2.618321,8.076336
1609459319,752,0.1191406,-0.9643555,0.03710938,-12.64886,-4.519084,-7.648855
1609459320,0,0.1479492,-0.9511718,0.01660156,-10.65649,-9.503817,-4.091603
1609459320,299,0.1416016,-1.148438,-0.1796875,-9.938931,-18.07634,3.786259
1609459320,549,-0.05517578,-0.9472656,-0.07373047,-7.72519,42.29771,3.427481
1609459320,801,0.112793,-0.9790039,0.0571289,17.59542,19.96183,-18.96183
1609459321,0,0.1240234,-0.8574218,0.1396484,8.206107,27.24428,-5.80916
1609459321,250,-0.1796875,-0.9863282,0.2260742,-15.22137,53.85496,21.26718
1609459321,504,0.09960938,-0.8862305,0.04589844,-59.41221,-65.83206,-32.49618
1609459321,762,0.1289063,-1.050293,-0.2744141,6.526718,-29.83969,46.91603
1609459322,0,0.1259766,-0.9467773,-0.0649414,44.93893,-10.69466,11.54962
1609459322,259,0.2080078,-0.8999023,0.00390625,-10.80916,51.53435,-73.83969
1609459322,515,0.1855469,-0.8457031,0.02148438,-3.618321,14.61069,-40.05344
1609459322,772,0.2368164,-1.203613,-0.08251953,-41.64122,-19.12977,12.31298
1609459323,0,0.2138672,-0.9682616,-0.2221679,38.37405,-33.47328,64.45802
1609459323,255,-0.06640625,-1.050293,0.01220703,18.90076,-40.20611,-9.152672
1609459323,520,0.3447266,-0.9580078,0.05664062,-28.18321,112.4275,-31.25954
1609459323,776,0.1582031,-0.9702149,0.07470703,-13.48855,19.83969,-20.69466
1609459324,0,0.06884766,-0.8115234,-0.2504883,-16.68702,-40.70229,11.74809
1609459324,313,0.2714844,-0.9316406,-0.1337891,38.55725,-32.16031,38.72519
1609459324,568,-0.00341797,-1.314453,0.0258789,-26.38931,-20.26718,-78.93893
1609459325,0,0.2021484,-0.6972656,-0.00488281,-23.85496,58.68702,-4.748092
1609459325,258,0.1347656,-0.8925782,0.1333008,-18.67175,-3.259542,-12.26718
1609459325,519,0.2856445,-1.09375,-0.4199219,15.10687,-83.48092,13.10687
1609459325,777,0.08105469,-0.8964844,-0.1621094,32.16794,-24.83969,14.09924
1609459326,0,0.2729492,-0.6342773,0.02636719,1.389313,-93.55725,-27.33588
1609459326,261,0.1748047,-0.8720703,0.09130858,26.67939,-41.60305,1.687023
1609459326,521,0.1772461,-1.411621,-0.0546875,-14.93893,-11.54962,40.89313
1609459326,782,0.2089844,-0.9975585,-0.2900391,26.73283,-100.6947,10.9542
1609459327,0,0.2148438,-1.037598,-0.0859375,30.50382,-45.60305,14.38168
1609459327,263,0.3173828,-0.9804687,0.06835938,-2.916031,-20.8855,17.0687
1609459327,523,0.1616211,-0.8906249,0.1186523,-0.648855,-37.35115,2.038168
1609459327,787,0.0444336,-0.7519531,-0.2309571,-5.030534,-87.12213,-20.42748
1609459328,0,0.0703125,-0.9780273,-0.1630859,20.19084,-52.58779,13.49618
1609459328,268,0.4311524,-1.432617,-0.09716797,3.992366,2.221374,-0.1679389
1609459328,579,0.1669922,-0.8457031,0.09082031,-9.900764,-4.061069,-18.60305
1609459329,0,0.08740233,-0.722168,0.05322266,-15.42748,39.24427,-3.916031
1609459329,262,0.5957031,-1.064453,-0.03808594,-26.92366,89.0458,21.18321
1609459329,523,0.09472656,-0.9780273,-0.362793,13.28244,158.687,-19.85496
1609459329,786,-0.324707,-0.8359375,0.3857422,23.77863,80.96947,-59.39695
1609459330,0,0.3881836,-1.043945,0.2880859,-5.694657,16.87023,-20.83206
1609459330,265,0.1679688,-0.7431641,0.2192383,56.70229,67.35114,26.29771
1609459330,534,0.6508789,-1.166992,0.04541016,121.0763,49.38168,-36.13741
1609459330,800,-0.2246094,0.4648438,-0.3081055,250.1298,-70.91603,11.41985
1609459331,0,-0.703125,0.887207,-0.7519531,94.87023,242.3969,-12.0916
1609459331,264,-1.365234,-0.1728516,-0.6889649,145.6718,250.1298,197.2366
1609459331,537,-0.8891602,0.1855469,-0.5400391,-13.12214,38.87023,-7.763359
1609459331,802,-0.8334961,0.04980469,-0.4267578,19.32825,-46.1145,5.694657
1609459332,0,-1.028809,0.1450195,-0.3886719,-4.816794,-3.450382,-3.435115
1609459332,271,-0.7392578,0.1411133,-0.6323242,42.54198,71.42748,21.66412
1609459332,540,-0.6918945,-0.7792969,-0.6801758,29.70992,-2.328244,-52.06107
1609459333,0,-0.8583983,0.01318359,-0.5429688,-4.839694,3.335878,-0.9694656
1609459333,268,-0.8520508,0.01806641,-0.5532227,-6.541985,0.832061,-4.847328
1609459333,574,-0.8720703,0.01513672,-0.5957031,-2.343511,-8.587787,1.038168
1609459333,826,-0.8793945,-0.01757812,-0.4423828,0.5343512,2.145038,4.076336
1609459334,0,-0.8813477,0.02685547,-0.5405273,-1.770992,-12.65649,5.236641
1609459334,252,-0.9331055,0.05957031,-0.3369141,-13.29008,-0.519084,2.885496
1609459334,506,-0.9047851,0.1625977,-0.2958984,-12.32061,25.48092,3.740458
1609459334,755,-0.9028319,0.2221679,-0.3681641,-47.17557,-22.43511,-0.389313
1609459335,0,-0.8935548,0.1831055,-0.2519531,-44.69466,15.48855,1.633588
1609459335,252,-0.9277344,0.2075196,-0.2988281,-22.16031,3.099237,2.885496
1609459335,504,-0.9819336,0.253418,-0.2973633,-32.35115,-6.21374,3.122137
1609459335,760,-0.9458008,0.3129883,-0.1376953,-66.15267,-5.274809,21.58779
1609459336,0,-0.8789063,0.3251953,0.0493164,-62.92366,-6.801527,28.50382
1609459336,254,-0.8745116,0.40625,0.2568359,-72.09161,-14.75572,5.51145
1609459336,515,-0.8095703,0.2402344,0.5322266,-47.33588,-53.35115,13.87786
1609459336,773,-0.6147461,0.2026367,0.7070313,-19.22901,-48.93893,-7.022901
1609459337,0,-0.4990234,0.1948242,0.8403319,-26.53435,-60.89313,9.335877
1609459337,252,-0.04589844,0.06689453,0.925293,-55.22901,-70.19084,-11.96183
1609459337,512,-0.06933594,-0.03710938,0.9995116,-37.68702,50.74809,-25.80153
1609459338,0,-0.06445312,-0.1630859,0.9516602,-52.87786,18.26718,-50.66412
1609459338,253,-0.03417969,-0.6674805,0.612793,-42.72519,-28.30534,-11.16031
1609459338,509,-0.1396484,-0.7094727,0.5581055,-40.79389,17.77099,9.740458
1609459338,767,-0.2026367,-0.7119141,0.5073242,-46.69466,-32.0,-11.19084
1609459339,0,-0.1674805,-0.9257813,0.2368164,-65.69466,-29.24428,-1.396947
1609459339,261,-0.02197266,-1.286621,0.1206055,-61.19847,-22.22137,11.33588
1609459339,516,-0.2011719,-1.109863,-0.1743164,-25.56489,18.35114,9.854961
1609459339,781,-0.0415039,-0.9111328,-0.1152344,1.129771,4.755725,-16.39695
1609459340,0,0.09179688,-0.6586914,-0.1162109,23.89313,47.27481,-2.763359
1609459340,260,-0.128418,-0.9892578,-0.00048828,-4.114504,30.70992,-5.824428
1609459340,525,-0.1000977,-0.9731445,0.1308594,4.129771,0.8702291,-7.977099
1609459340,785,-0.1064453,-0.894043,0.184082,0.1603053,-18.03817,-6.748092
1609459341,0,0.0625,-1.17334,0.1357422,-14.08397,11.0916,9.503817
1609459341,325,0.2006836,-1.041504,0.00341797,-29.9771,-19.58779,1.763359
1609459341,584,-0.046875,-0.9521483,-0.07128906,4.625954,-11.99237,23.22901
1609459341,843,-0.1269531,-0.9721681,-0.06298828,7.580153,-6.21374,-3.664122
1609459342,0,0.2651367,-0.7236328,0.1293945,16.93893,13.69466,-8.687023
1609459342,265,0.00048828,-0.8798828,0.1640625,2.687023,15.72519,9.129771
1609459342,529,-0.1147461,-1.027344,0.300293,-32.19084,7.610687,-19.38168
1609459343,0,0.05859375,-1.01123,-0.121582,-2.862595,16.46565,27.31298
1609459343,268,-0.1396484,-0.8876952,0.00341797,4.717557,-16.80916,15.80153
1609459343,532,-0.01660156,-1.007324,-0.00439453,-1.763359,64.93893,-22.96947
1609459343,794,-0.1005859,-0.8222656,0.09423828,-4.251908,-18.89313,-16.76336
1609459344,0,-0.1547852,-1.277832,0.1357422,-53.16794,-53.60305,-0.9465649
1609459344,264,0.0703125,-0.8632813,-0.1142578,11.76336,-33.80916,30.89313
1609459344,528,-0.1728516,-1.083984,0.1103516,10.75572,3.045802,-11.91603
1609459344,798,0.1020508,-0.9516602,0.07128906,7.358778,38.01527,-7.625954
1609459345,0,-0.1982422,-0.9067384,0.2089844,-13.19847,17.58015,0.00763359
1609459345,267,0.03222656,-1.021973,-0.1582031,-22.9771,-78.03053,2.870229
1609459345,582,-0.08935547,-1.105957,-0.1308594,16.19847,-5.946565,-21.36641
1609459346,0,0.1616211,-0.8671875,0.1254883,17.35878,60.40458,7.526718
1609459346,264,-0.1669922,-1.023438,0.2470703,-20.45802,8.312977,3.198473
1609459346,531,-0.01904297,-0.8891602,-0.1572266,10.06107,7.366412,21.40458
1609459346,802,-0.1738281,-1.041992,-0.01757812,-1.763359,-41.64122,3.465649
1609459347,0,-0.05908203,-0.9233398,0.05029297,7.625954,-34.48092,21.62595
1609459347,272,0.00830078,-0.9077149,0.09082031,1.167939,-30.9542,22.41221
1609459347,541,-0.3496094,-0.9946289,-0.2036133,-26.89313,-59.48855,11.00763
1609459347,846,-0.1953125,-1.032715,-0.1381836,5.496184,-11.35878,-6.160306
1609459348,0,-0.1601563,-0.9204102,0.00585938,-6.557252,19.45802,-1.022901
1609459348,249,-0.2910156,-0.9199218,-0.06591797,-7.206107,2.122137,-0.9923664
1609459348,499,-0.2285156,-0.96875,-0.07324219,-2.267176,11.81679,-3.114504
1609459348,752,-0.1713867,-0.9931641,-0.1049805,-3.694656,10.41985,-1.053435