Epoch_time_s,milliseconds_elapsed,Ax,Ay,Az,Gx,Gy,Gz
1609459203,0,-0.3217773,-0.9536133,-0.01806641,-13.12977,6.969466,-17.55725
1609459203,216,-0.1630859,-0.8071289,0.05419922,9.244275,15.12977,-3.007634
1609459204,0,0.08300781,-0.8623048,0.1865234,-8.129771,17.69466,2.19084
1609459204,218,-0.0234375,-0.9194336,0.1811523,-20.61069,-2.770992,-6.030534
1609459204,437,0.02294922,-1.005859,-0.1450195,-5.244275,-41.13741,7.70229
1609459204,656,0.0209961,-0.887207,-0.1074219,10.90076,2.977099,-7.793893
1609459204,877,0.159668,-0.956543,0.07226562,24.33588,-30.12977,0.8625955
1609459205,0,-0.1206055,-0.9316406,0.09082031,-17.54198,-41.41221,13.57252
1609459205,304,-0.06445312,-0.8291017,0.1025391,-7.923664,-5.129771,-1.763359
1609459205,558,-0.01464844,-1.242676,0.07177734,-11.49618,14.70992,-17.77099
1609459206,0,0.05175781,-0.9375,-0.1069336,2.801527,63.27481,0.1908397
1609459206,253,0.04296875,-0.9140625,-0.08154297,1.984733,12.25191,-7.923664
1609459206,510,-0.15625,-0.8881836,-0.0756836,-19.77099,30.61832,-4.015267
1609459206,762,-0.01220703,-0.8583983,0.046875,-0.6946565,3.862595,-1.984733
1609459207,0,0.04052734,-1.416504,-0.1303711,3.580153,-15.54962,-13.99237
1609459207,253,-0.03417969,-0.9223633,-0.105957,-5.015267,-26.49618,8.603053
1609459207,513,0.1499023,-0.9042969,0.0571289,-4.458015,-76.46565,21.85496
1609459207,771,-0.1855469,-1.095703,0.01220703,-10.83206,-13.68702,0.8549618
1609459208,0,0.0390625,-0.9672851,0.08496094,2.183206,74.32061,-15.56489
1609459208,257,0.05957031,-0.9921875,-0.2075196,20.13741,90.73283,1.21374
1609459208,516,0.08984375,-1.000488,-0.01464844,-7.305343,-21.87786,7.916031
1609459208,776,-0.2294922,-0.7636718,-0.1357422,-14.47328,-49.41985,16.64122
1609459209,0,-0.01123047,-0.84375,0.0493164,-9.129771,-27.45038,-1.847328
1609459209,259,0.01806641,-1.431152,0.03076172,-3.061069,0.6412213,-35.55725
1609459209,567,0.01904297,-0.8769531,-0.08447267,8.389313,32.06107,27.65649
1609459209,827,-0.1835938,-1.331543,0.1806641,-32.44275,-63.83207,-4.114504
1609459210,0,0.00976562,-0.8598633,0.1416016,-29.85496,-121.1298,7.641222
1609459210,262,0.01757812,-1.003418,0.1171875,-15.49618,21.63359,-1.763359
1609459210,527,-0.07128906,-0.8554687,-0.1376953,16.90076,95.37405,-14.33588
1609459210,785,-0.08203125,-0.8569336,-0.1176758,21.0,32.07634,-17.58779
1609459211,0,-0.2460938,-1.091797,-0.07519531,-46.76336,-13.56489,37.27481
1609459211,259,0.04638672,-0.8652344,0.1352539,-10.67176,-30.13741,12.63359
1609459211,522,0.07958984,-1.27002,-0.04638672,-10.42748,24.13741,-15.57252
1609459212,0,-0.02978516,-0.7431641,-0.1166992,19.90076,0.8549618,-0.8625955
1609459212,263,-0.4648438,-1.09668,-0.01513672,-17.24427,-65.52672,14.64122
1609459212,527,0.1953125,-0.7192383,0.2143554,-16.25954,-16.12214,18.99237
1609459212,789,-0.1245117,-1.15625,-0.1220703,0.9007633,17.29771,-6.427481
1609459213,0,0.00585938,-0.7719727,-0.07519531,31.33588,17.36641,-2.312977
1609459213,264,-0.09960938,-0.9682616,-0.03955078,-28.42748,-57.21374,27.64122
1609459213,528,-0.1943359,-1.038086,-0.09130858,-25.79389,-145.4733,4.282443
1609459213,842,-0.1401367,-1.45166,-0.05566406,-36.56488,-22.79389,-0.3664123
1609459214,0,-0.2631836,-0.8442384,-0.1826172,25.71756,-73.35114,-14.44275
1609459214,270,0.09033203,-1.050293,0.00146484,-14.83969,-63.87786,26.22137
1609459214,536,-0.3085938,-1.019043,-0.03808594,-11.66412,-42.72519,1.870229
1609459214,801,-0.01806641,-0.9365234,0.253418,-10.80153,-4.694656,-28.48092
1609459215,0,-0.05957031,-1.134766,-0.09863281,24.29771,40.74809,3.572519
1609459215,269,-0.06982422,-0.6894531,0.05126953,45.80152,50.61832,5.610687
1609459215,534,-0.7495117,-0.8935548,-0.1381836,-64.21374,-45.12977,7.335878
1609459216,0,0.05517578,-0.3378906,0.2949219,9.61832,-42.16031,-79.61832
1609459216,270,0.07763672,-1.729004,0.1298828,17.8855,28.29008,-9.320611
1609459216,544,-0.5664063,-1.233887,-0.7070313,-95.29008,-128.9695,77.07633
1609459216,816,0.2514648,-0.2441406,0.3930664,-4.152672,-42.56488,-56.0
1609459217,0,-0.2705078,-1.695801,-0.5078125,49.38931,89.94656,-20.39695
1609459217,271,-0.08398438,-1.616699,-0.2514648,-71.03053,-165.7252,125.5267
1609459217,577,0.01757812,-0.03515625,0.3623047,18.90076,3.633588,-100.5573
1609459217,833,-0.2075196,-1.046387,-0.4492188,-5.748092,67.35114,16.19084
1609459218,0,-0.1303711,-1.528809,0.3041992,-41.0458,-170.8244,41.62595
1609459218,250,0.3168945,-0.6010742,0.3417969,7.938931,146.145,-74.30534
1609459218,501,-0.2875977,-0.3793945,-0.4545898,-14.74046,64.771,3.59542
1609459219,0,-0.65625,-1.841309,-0.0444336,-49.23664,-157.2366,101.0382
1609459219,251,0.5170898,-0.2734375,0.331543,-14.38168,58.29008,-62.19084
1609459219,504,-0.3217773,-0.2016602,-0.2080078,15.48092,-35.25191,-12.87786
1609459219,754,0.1787109,-0.2133789,0.04345703,-71.93893,-124.7023,34.87023
1609459220,0,-0.6430664,-1.897461,-0.421875,23.42748,-40.42748,-27.33588
1609459220,255,-0.1420898,-0.7871094,-0.2138672,-30.9542,-8.21374,18.37405
1609459220,511,-1.170898,-1.585449,-0.3339844,-33.49618,-186.8321,15.37405
1609459220,765,0.3266602,-0.315918,0.1904297,14.09924,29.16794,-21.32825
1609459221,0,-0.2045898,-0.7270508,-0.3613281,-11.54198,1.282443,-10.0916
1609459221,256,-0.7060547,-1.516113,-0.2866211,-18.61069,-132.3512,7.862596
1609459221,512,0.2583008,-0.2993164,0.1704102,-24.25191,74.37405,-26.82443
1609459221,770,-0.2597656,-1.388672,-0.2553711,22.62595,94.771,15.64886
1609459222,0,-0.2597656,-1.128906,-0.3979492,-22.32061,-57.62595,-2.534351
1609459222,309,0.05566406,-0.5737305,0.1586914,11.9084,37.49618,-70.64122
1609459222,567,0.02734375,-1.587402,-0.1347656,-15.9771,-23.33588,7.870229
1609459222,829,-0.0600586,0.04492188,-0.2324219,-30.23664,-98.8168,2.648855
1609459223,0,-0.6171875,-1.577637,-0.5146484,-7.664122,-178.6718,25.91603
1609459223,258,0.1157227,-0.1777344,0.2036133,-13.29771,-21.9771,-32.98473
1609459223,513,-0.1987305,-1.413574,-0.07763672,23.83206,-13.12977,-17.01527
1609459223,769,-0.1318359,-0.484375,-0.3671875,-0.9770992,-102.8626,5.732824
1609459224,0,0.2470703,-0.8525391,0.128418,-41.54962,-90.56489,46.84733
1609459224,263,-0.2280273,-1.435547,0.0234375,59.56488,73.03817,-80.33588
1609459224,523,0.00927734,-0.7070313,-0.1220703,-18.36641,-102.8702,46.9313
1609459224,788,-0.3100586,-0.9858398,0.1577148,-56.80916,-106.1374,23.01526
1609459225,0,-0.2207031,-0.699707,0.06738281,-22.94657,4.961832,-5.068702
1609459225,263,0.2148438,-1.272461,-0.1772461,66.26717,149.2366,-67.90839
1609459225,522,0.1806641,-0.9155273,0.06445312,-25.54962,11.84733,4.122138
1609459226,0,-0.3999024,-0.7724609,-0.2275391,-31.42748,-17.80153,34.94656
1609459226,259,-0.0493164,-0.8217773,0.03515625,-17.90076,-17.26718,17.22137
1609459226,574,-0.1000977,-0.8842773,-0.1171875,8.961832,29.70992,-29.30534
1609459226,837,0.02832031,-0.8295898,-0.1030273,14.41221,24.16794,-5.61832
1609459227,0,-0.00195312,-1.007324,-0.1064453,-26.57252,-23.67939,11.43511
1609459227,263,-0.1206055,-0.9711915,-0.1416016,2.656489,-71.59542,10.85496
1609459227,525,-0.08642578,-0.9052734,0.02392578,-12.29008,-8.511451,-6.961833
1609459227,791,0.08105469,-1.01123,-0.1748047,4.167939,63.17557,10.03817
1609459228,0,0.05615234,-0.8354492,0.00195312,14.38168,-11.20611,-2.465649
1609459228,269,-0.2602539,-1.264648,-0.00878906,-13.9084,-61.1145,0.01526718
1609459228,536,0.01806641,-0.7353516,0.1811523,-20.73282,-3.618321,27.63359
1609459228,806,-0.1142578,-1.097168,-0.2871094,26.60305,70.64122,-14.41221
1609459229,0,0.07324219,-0.9165039,-0.04052734,19.84733,5.59542,-3.458015
1609459229,271,-0.1660156,-0.7543945,-0.08007812,-21.67175,-7.10687,-0.9007633
1609459229,538,0.1401367,-0.8017578,0.15625,-11.36641,28.55725,-3.374046
1609459230,0,-0.00976562,-0.9628906,-0.0493164,2.198473,43.57252,11.90076
1609459230,271,-0.08935547,-1.046387,-0.1645508,-19.26718,-35.67939,30.50382
1609459230,540,-0.2026367,-0.9282227,-0.09423828,14.34351,28.30534,-16.38931
1609459230,860,-0.06298828,-1.084473,0.04785156,-1.030534,0.9770992,-16.22901
1609459231,0,-0.1669922,-0.9101563,-0.1015625,33.32824,54.53435,4.427481
1609459231,269,0.06445312,-0.9433594,0.1210938,-13.74809,-30.25954,3.259542
1609459231,542,-0.3286133,-1.104492,-0.09570312,-29.83206,-59.84733,3.061069
1609459232,0,0.0288086,-0.7900391,0.1489258,-7.083969,-20.19847,-3.618321
1609459232,309,0.02294922,-0.9409181,-0.1113281,21.61069,76.61069,2.282443
1609459232,563,-0.05371094,-0.8530273,-0.1396484,-5.21374,-57.05344,12.41221
1609459232,815,-0.203125,-1.02832,-0.00537109,-26.48092,-36.16031,4.114504
1609459233,0,-0.0390625,-0.9467773,0.01611328,-11.54198,24.42748,-5.122138
1609459233,260,-0.2670898,-0.8969727,-0.1201172,45.16794,34.32824,-23.66412
1609459233,512,-0.1645508,-0.8393555,-0.1289063,-16.32825,-64.25191,-0.221374
1609459233,764,-0.1083984,-0.8393555,0.01171875,-40.09924,-94.2748,18.31298
1609459234,0,-0.1499023,-1.132324,-0.00292969,-18.37405,-37.72519,-10.07634
1609459234,252,-0.1914062,-0.8769531,-0.07519531,1.419847,-56.82443,-9.977099
1609459234,511,-0.09716797,-0.9663085,-0.1772461,-2.030534,-73.72519,15.52672
1609459234,769,-0.3852539,-1.011719,-0.09179688,-42.96947,-142.542,16.71756
1609459235,0,-0.1191406,-1.124512,-0.1694336,-2.801527,-37.25954,-12.32824
1609459235,260,-0.2270508,-0.8642578,-0.1049805,10.26718,-19.05343,4.603054
1609459235,515,-0.2255859,-1.015137,-0.1186523,-25.00763,-81.21374,11.77863
1609459235,771,-0.2011719,-0.9555664,-0.09326172,-35.48092,-112.542,-10.06107
1609459236,0,-0.1835938,-1.155273,-0.4770508,-14.69466,-72.34351,-8.335877
1609459236,255,-0.1850586,-0.9511718,-0.2338867,-36.23664,-123.9847,15.84733
1609459236,509,-0.1694336,-0.8920898,-0.0625,-25.37405,-105.2748,-6.175572
1609459236,763,-0.1386719,-0.9765625,0.08496094,-27.38168,-77.35878,-17.73282
1609459237,0,0.04248047,-0.9555664,0.04248047,-4.656488,-14.41985,11.65649
1609459237,261,-0.04296875,-0.9536133,-0.03808594,-5.061069,-16.59542,-1.580153
1609459237,520,-0.1518555,-1.120605,-0.03613281,-3.931298,-26.77863,-12.25954
1609459238,0,-0.1254883,-0.8896483,0.1030273,8.625955,26.58015,12.12214
1609459238,259,-0.105957,-1.246094,-0.01464844,28.18321,79.41985,-43.47328
1609459238,518,-0.04052734,-0.9052734,-0.1791992,26.54962,66.1145,-10.22137
1609459238,775,-0.2802734,-1.184082,-0.0336914,8.496183,7.801527,-38.51145
1609459239,0,0.01806641,-0.8491211,0.08251953,3.778626,59.30534,1.206107
1609459239,308,0.06884766,-1.380371,-0.06884766,24.30534,71.69466,-80.70229
1609459239,573,0.128418,-0.9028319,-0.2368164,2.022901,49.19084,15.47328
1609459239,832,-0.04638672,-1.097656,0.08837892,-20.10687,26.35114,14.36641
1609459240,0,0.06445312,-1.052246,-0.1381836,27.41985,90.90076,-4.755725
1609459240,259,-0.02783203,-0.5268555,-0.06591797,-3.938931,-7.076336,65.37405
1609459240,521,-0.5131836,-0.9775391,-0.6645508,-50.2061,-74.98473,250.1298
1609459240,779,-2.928711,3.204101,1.974121,135.6718,119.3206,-62.0687
1609459241,0,-0.105957,0.7646484,0.8193359,104.7023,-39.36641,56.9313
1609459241,265,0.5126953,0.6518555,0.9643555,-58.98473,-11.70992,1.038168
1609459241,531,-0.1704102,0.3071289,0.7910156,-20.32061,42.80916,4.427481
1609459241,798,-0.2573242,0.1791992,1.065918,-41.87786,58.74046,-27.0229
1609459242,0,-0.3457031,0.0571289,0.7470703,-74.37405,79.39695,-38.19084
1609459242,266,-0.5600586,-0.3046875,0.1069336,-68.31298,51.77863,-32.13741
1609459242,532,-0.6816406,-0.8100585,0.1264648,-10.25954,-4.274809,-9.450381
1609459243,0,-0.6196289,-0.5883789,0.3540039,5.671755,3.938931,18.85496
1609459243,264,-0.6323242,-0.6479492,0.3442383,-0.8854961,-5.969466,-5.183206
1609459243,580,-0.7226563,-0.7641602,0.1435547,-31.48855,22.74809,-26.34351
1609459243,846,-0.7431641,-0.7353516,-0.1201172,-1.969466,63.22901,-53.16794
1609459244,0,-0.2172852,-0.887207,-0.02783203,-9.564885,56.45038,-28.39695
1609459244,269,-0.4609375,-0.7055664,0.1245117,24.70992,17.03053,-37.58015
1609459244,537,-0.2797852,-1.070801,0.08984375,5.862596,-5.648855,-42.24427
1609459244,802,0.01464844,-1.120117,0.04638672,17.9313,-24.67939,44.9313
1609459245,0,-0.3359375,-0.9248048,0.0522461,-29.9084,-21.16031,44.80916
1609459245,268,-0.6601563,-0.7475585,-0.07861328,14.14504,17.25954,12.96947
1609459245,538,-0.7763672,-1.283691,0.2402344,-32.50382,-11.12214,-5.137404
1609459246,0,-0.4555664,-0.8857422,0.00976562,-40.35878,-32.56488,-29.74809
1609459246,274,-0.1816406,-0.84375,-0.05273438,-62.0916,-69.41985,-47.0
1609459246,579,-0.0390625,-1.328613,-0.09130858,-9.801527,-52.32061,-24.25191
1609459246,829,0.00146484,-0.9287109,0.1347656,-5.78626,-27.25954,-6.709924
1609459247,0,-0.1269531,-0.8803711,0.0805664,-18.23664,23.59542,-6.27481
1609459247,250,-0.09179688,-1.022461,-0.1381836,-16.13741,-22.51908,-6.877862
1609459247,499,-0.05859375,-0.9956055,-0.2460938,8.900764,34.8855,-1.305344
1609459247,801,-0.1088867,-0.9814452,-0.1855469,3.755725,-7.740458,5.89313
1609459248,0,-0.2148438,-0.7998047,0.03027344,-1.977099,-13.03053,6.572519
1609459248,254,-0.09912108,-0.8603517,0.0649414,-12.62595,-15.91603,-2.099237
1609459248,519,-0.1201172,-0.9584961,0.07861328,-19.64122,10.70229,5.29771
1609459248,775,-0.00683594,-0.9780273,-0.309082,18.82443,85.52672,3.045802
1609459249,0,-0.0805664,-0.9511718,-0.2373047,1.198473,30.80916,15.60305
1609459249,255,-0.4018555,-0.9633789,-0.1621094,4.801527,-1.748092,-11.48855
1609459249,505,-0.1367188,-0.8320313,0.08300781,10.33588,10.20611,-9.061069
1609459249,765,-0.1992188,-0.8305664,0.1679688,11.0687,-14.12214,-7.732824
1609459250,0,-0.08935547,-0.8999023,0.06884766,3.786259,40.54962,-3.938931
1609459250,264,-0.1074219,-0.8198242,0.02685547,-10.64122,6.419847,7.51145
1609459250,523,-0.2421875,-1.192383,0.015625,-50.0687,-50.30534,16.60305
1609459251,0,-0.06689453,-0.7866211,0.1577148,-13.85496,-42.98473,8.221375
1609459251,257,-0.128418,-1.458496,-0.05615234,-21.49618,23.39695,-13.62595
1609459251,514,-0.1166992,-0.9160156,-0.1723633,27.73283,36.85496,-15.37405
1609459251,771,0.01904297,-1.005371,-0.01806641,4.671756,-15.83206,4.229008
1609459252,0,-0.21875,-1.026367,0.02392578,-23.03817,-35.1832,-7.465649
1609459252,258,-0.1054688,-0.862793,0.1342773,-10.82443,10.85496,-9.114504
1609459252,516,-0.00878906,-0.9531249,-0.1245117,5.351145,34.96947,5.458015
1609459252,774,0.01416016,-0.8481445,-0.0258789,17.1145,9.083969,0.2137404
1609459253,0,-0.1435547,-1.266602,-0.02832031,-36.0,-33.54962,13.20611
1609459253,267,-0.152832,-0.8369141,0.07714844,-15.03053,-82.46565,11.15267
1609459253,535,-0.1767578,-1.022461,0.06201172,-33.85496,8.755725,-3.89313
1609459253,800,-0.06689453,-0.9946289,-0.2548828,14.9084,36.60305,-5.412214
1609459254,0,-0.09277344,-1.008301,-0.1870117,10.82443,5.755725,1.038168
1609459254,264,-0.3354492,-0.7338867,-0.07373047,1.229008,-25.69466,-6.015267
1609459254,531,-0.00097656,-0.8798828,0.1591797,-9.221375,-18.43511,-6.465649
1609459254,792,-0.06103516,-1.472168,-0.02490234,7.366412,35.29771,-31.65649
1609459255,0,-0.00634766,-0.9335938,-0.00097656,57.45038,79.77863,-16.45038
1609459255,261,0.1318359,-0.8989258,0.2998047,23.35878,47.86259,-10.27481
1609459255,525,-0.1972656,-0.9853517,0.3374024,-2.10687,6.748092,-20.35114
1609459256,0,-0.1386719,-0.7080078,0.4033203,-2.755725,71.54198,-18.70229
1609459256,314,0.1064453,-0.8554687,0.2294922,-13.17557,55.38168,-10.9313
1609459256,582,-0.08984375,-0.7832031,0.08105469,-32.9771,-42.84733,21.25954
1609459256,849,-0.21875,-0.9145508,0.1137695,-21.63359,-30.77863,41.0229
1609459257,0,-0.0078125,-0.855957,0.2788086,-16.33588,-62.96947,17.42748
1609459257,265,-0.2485352,-1.092773,0.0258789,-5.282443,4.89313,-6.312977
1609459257,528,-0.1323242,-0.9360351,0.03808594,42.55725,18.18321,-26.74046
1609459257,794,0.04980469,-0.8564452,0.1347656,-25.92366,2.267176,11.53435
1609459258,0,-0.3969726,-1.155273,-0.1328125,4.984733,107.8473,-39.9542
1609459258,267,-0.078125,-0.8457031,-0.05810547,38.35878,113.4733,-18.07634
1609459258,534,0.1323242,-1.095215,-0.1264648,26.51145,91.0229,-23.05343
1609459259,0,0.00439453,-0.8637695,-0.1220703,15.0229,112.4427,-7.335878
1609459259,270,-0.2651367,-0.9531249,-0.08886719,13.68702,46.0458,-2.358779
1609459259,536,-0.03222656,-0.7758789,0.2304688,-7.40458,-38.24427,8.732824
1609459259,807,-0.1416016,-1.089355,0.1645508,-7.358778,41.24427,-11.39695
1609459260,0,-0.1264648,-0.9096681,-0.105957,-1.068702,78.09924,-9.343512
1609459260,273,-0.01269531,-0.9628906,0.02783203,0.6793893,28.0916,6.068702
1609459260,598,-0.4125976,-0.9238282,-0.01660156,-1.412214,24.74046,-9.061069
1609459260,904,-0.1552734,-0.8818359,0.09277344,-2.51145,63.53435,-12.27481
1609459261,0,-0.1577148,-1.683105,-0.2285156,30.59542,41.29771,-55.38168
1609459261,251,0.02734375,-0.9428711,-0.05419922,20.75573,57.84733,-16.14504
1609459261,499,0.0415039,-0.9414063,0.08789062,-8.625955,42.08397,3.763359
1609459261,750,-0.2988281,-0.9370116,0.01464844,5.770992,94.17558,-5.480916
1609459262,0,-0.07861328,-0.7949218,0.01464844,4.70229,99.35114,-9.717557
1609459262,253,0.02001953,-1.496094,-0.1601563,3.351145,81.99236,-25.96947
1609459262,509,0.09521483,-0.9438477,-0.1308594,-1.358779,36.60305,-8.709924
1609459263,0,0.0415039,-1.060547,-0.2260742,-2.503817,57.70992,-0.3587786
1609459263,250,-0.1264648,-0.8798828,-0.1479492,-31.39695,17.70992,18.54962
1609459263,503,-0.2402344,-0.7871094,-0.2065429,-38.9313,41.60305,37.67939
1609459263,758,-0.3251953,-0.9311523,-0.3706055,-11.32061,-3.320611,-0.6946565
1609459264,0,-0.3286133,-0.9179687,-0.5292969,-25.0916,6.862596,13.32824
1609459264,266,-0.3193359,-0.8159181,-0.5620117,-13.39695,22.56489,8.458015
1609459264,523,-0.1791992,-0.8896483,-0.7338867,8.793893,41.51908,6.80916
1609459264,830,-0.1552734,-0.7797851,-0.6533203,-20.74046,8.480916,2.847328
1609459265,0,-0.277832,-0.8339844,-0.7905273,0.2748091,-4.183206,-7.694657
1609459265,255,-0.2319336,-0.7436523,-0.6337891,12.83969,-11.12214,-11.64886
1609459265,512,-0.2041016,-0.8168945,-0.5776367,15.72519,-12.29771,-8.938931
1609459265,769,-0.2060547,-0.9228517,-0.4594726,19.32061,-17.98473,-14.35878
1609459266,0,-0.2177734,-1.01709,-0.3808594,20.03053,-14.50382,-16.49618
1609459266,261,-0.1396484,-0.9570313,-0.2895508,5.167939,-22.70229,-8.610687
1609459266,523,-0.1381836,-0.9213867,-0.2128906,17.70229,-19.77863,-11.83969
1609459266,786,-0.0600586,-0.9204102,-0.09277344,17.78626,-38.41985,-23.9313
1609459267,0,0.02539062,-0.8417969,-0.01806641,14.37405,-59.99237,-2.648855
1609459267,257,0.1166992,-0.9692384,0.04541016,13.63359,-29.13741,-8.40458
1609459267,515,0.168457,-1.010742,0.08837892,-8.816793,-12.18321,16.54198
1609459267,778,0.09570312,-0.9863282,0.08203125,-3.221374,2.473282,-2.977099
1609459268,0,0.02197266,-0.9833983,-0.04589844,-8.099236,15.54962,4.70229
1609459268,263,0.02246094,-0.9389649,0.02490234,-16.60305,-44.05344,43.91603
1609459268,525,-0.1513672,-0.9521483,0.01416016,-14.16031,-17.26718,29.68702
1609459269,0,-0.1162109,-0.96875,0.1767578,-4.564886,-10.12214,-17.86259
1609459269,259,-0.1166992,-0.9604492,0.1010742,-1.007634,39.84733,-25.39695
1609459269,519,-0.02929688,-0.9409181,0.05029297,-5.748092,19.9771,-18.0229
1609459269,781,0.09033203,-0.9853517,-0.08642578,-4.503817,74.0458,8.916031
1609459270,0,0.0415039,-1.040527,-0.1206055,1.442748,8.045801,-5.763359
1609459270,265,-0.05664062,-1.061035,-0.1074219,-9.61832,-46.37405,-5.244275
1609459270,530,-0.00537109,-0.9873048,-0.05615234,-1.221374,-46.51908,11.77863
1609459270,801,-0.04101562,-1.036621,0.1342773,-3.282443,12.96947,17.81679
1609459271,0,-0.1542969,-0.9750977,0.04248047,10.0458,58.25954,49.41221
1609459271,261,-0.4682617,-0.7719727,-0.00537109,8.610687,10.54198,15.59542
1609459271,531,-0.5649414,-0.831543,0.01904297,2.030534,24.16794,8.679389
1609459271,794,-0.6704102,-1.04834,0.02490234,12.38931,15.87023,-16.48855
1609459272,0,-0.4462891,-0.8720703,0.01806641,-1.48855,3.045802,-5.816793
1609459272,267,-0.4155274,-0.8867187,0.02294922,-2.992366,-3.152672,-3.465649
1609459272,537,-0.4057617,-0.8769531,-0.0366211,-20.74046,-2.442748,3.022901
1609459273,0,-0.5234375,-0.8359375,-0.2309571,-70.13741,-7.755725,22.72519
1609459273,315,-0.4311524,-0.7270508,-0.1567383,-21.67939,-100.0305,-23.13741
1609459273,579,-0.4418945,-0.9775391,0.00097656,-0.9923664,-64.70229,-20.30534
1609459273,843,-0.3447266,-0.9599609,-0.08496094,-18.0,-40.31298,-7.374046
1609459274,0,-0.3139648,-0.9672851,-0.05273438,-56.12214,-6.21374,7.374046
1609459274,273,-0.2832031,-0.9296875,-0.08886719,-11.57252,10.22901,12.9313
1609459274,541,-0.3012695,-0.8793945,-0.08740233,8.557252,32.48092,19.74809
1609459274,811,-0.7573242,-0.4428711,-0.4472657,25.07634,10.22901,12.52672
1609459275,0,-0.4399414,-0.6660156,0.00390625,20.69466,4.732824,-22.9084
1609459275,247,-0.5830078,-1.248047,-0.06933594,2.48855,49.9542,-27.45038
1609459275,496,-0.4082031,-0.9228517,-0.2773438,3.648855,49.8168,-5.076336
1609459276,0,-0.3364258,-1.129395,-0.3510742,17.06107,34.41221,18.66412
1609459276,254,-0.4985352,-0.6933594,-0.2553711,28.28244,26.76336,0.5343512
1609459276,514,-0.2924805,-0.746582,-0.07861328,30.87023,38.35115,-6.305343
1609459276,767,-0.4213867,-0.8344727,0.07177734,0.5877862,-0.1755725,-21.81679
1609459277,0,-0.4384766,-0.7880859,-0.4326172,4.282443,84.72519,-12.71756
1609459277,256,-0.2954102,-0.8295898,-0.2309571,-13.74809,19.69466,-0.4885496
1609459277,559,-0.3554688,-0.7548828,-0.3012695,-3.427481,-56.35115,4.709924
1609459277,811,-0.3510742,-0.730957,0.1220703,-28.79389,-56.91603,-11.34351
1609459278,0,-0.2436523,-1.043945,-0.01025391,2.40458,-48.45802,-7.496184
1609459278,255,-0.2763672,-0.8144531,-0.2314453,-14.27481,12.69466,0.7175572
1609459278,514,-0.3232422,-1.105957,0.0678711,-8.633588,-19.03053,-29.09924
1609459278,768,-0.09716797,-0.6743164,0.1396484,-10.75572,-60.78626,11.66412
1609459279,0,-0.3242188,-1.128906,0.1352539,3.015267,11.60305,-28.83969
1609459279,256,-0.4194336,-0.7607422,-0.3027344,-19.64122,83.12977,-5.709924
1609459279,524,-0.4067383,-1.007324,-0.2080078,-22.67175,-25.66412,4.557252
1609459279,780,-0.4726563,-0.8081055,-0.2192383,-26.27481,-61.74046,-7.664122
1609459280,0,-0.3144531,-0.7426758,0.1884766,-29.0916,-41.71756,-19.41221
1609459280,259,-0.2402344,-0.9482422,-0.2036133,44.27481,-5.625954,16.51145
1609459280,520,-0.3027344,-0.8134766,-0.05566406,-4.435114,-24.87023,7.587786
1609459280,779,-0.5620117,-0.8432616,-0.08398438,-14.67176,-48.92366,-47.32061
1609459281,0,-0.00292969,-0.8603517,0.1455078,-43.12977,-15.29008,-15.47328
1609459281,260,-0.2739258,-1.487793,-0.1162109,26.61832,65.12214,-28.94657
1609459281,566,-0.09667969,-0.7802734,-0.08789062,33.19847,15.96947,-7.343512
1609459282,0,-0.2329102,-1.060059,0.06298828,-44.45038,-36.50382,-9.366412
1609459282,266,-0.1977539,-0.9052734,-0.01367188,-27.12214,-63.75573,1.557252
1609459282,531,0.04589844,-1.084473,0.1499023,12.19847,28.33588,-18.41985
1609459282,795,-0.1948242,-0.7885742,-0.08398438,34.44275,22.15267,-5.145038
1609459283,0,-0.2250977,-1.416992,0.1005859,-45.72519,-72.37405,-23.37405
1609459283,263,0.1108398,-0.769043,0.1137695,-42.91603,-77.771,28.15267
1609459283,523,-0.2475586,-1.457031,-0.1518555,6.343512,20.9084,-32.19084
1609459283,787,-0.1513672,-0.784668,-0.09716797,27.56489,-45.44275,-1.473282
1609459284,0,-0.2158203,-0.875,-0.07519531,-29.0687,-43.31298,15.45802
1609459284,266,-0.01855469,-0.8964844,0.0078125,-31.39695,-122.626,5.045802
1609459284,538,-0.4633789,-1.196289,-0.4213867,-13.45038,-112.0229,-12.15267
1609459284,801,0.00146484,-1.047852,-0.1601563,-23.53435,-159.7557,27.72519
1609459285,0,-0.1259766,-0.9125977,0.0078125,-21.29771,-108.6718,0.1603053
1609459285,272,-0.1816406,-0.9511718,0.05419922,-15.60305,-62.77099,-16.8855
1609459285,537,0.1499023,-0.8061523,-0.0756836,3.755725,38.03053,12.90076
1609459286,0,-0.09912108,-1.199707,-0.00634766,2.274809,-55.12214,-3.633588
1609459286,266,0.06347656,-0.9965819,0.1801758,-0.09923664,-10.27481,-22.03817
1609459286,534,0.03417969,-1.136719,-0.2158203,-9.580153,25.96947,14.50382
1609459286,806,-0.08642578,-0.7866211,-0.2475586,13.31298,37.31298,27.82443
1609459287,0,-0.05664062,-0.5366211,0.07324219,2.0,30.32825,100.1145
1609459287,267,-0.6020508,-0.9960938,-0.3759766,63.65649,-74.33588,81.56489
1609459287,537,-1.444336,2.349121,2.133789,237.2443,175.4886,170.1603
1609459287,806,-0.640625,0.1162109,0.6787109,-69.12214,-48.2061,-45.45802
1609459288,0,0.1796875,-0.1259766,1.113281,-22.22137,34.69466,-11.63359
1609459288,275,-0.2666016,0.2177734,0.8837891,-19.79389,28.74046,-13.15267
1609459288,545,-0.5229492,-0.3154297,0.8286133,-58.67175,89.25954,-25.0687
1609459289,0,-0.7978516,-0.3051758,0.1850586,-84.74046,63.41221,-27.21374
1609459289,273,-0.5766602,-0.7265625,0.1030273,-27.03817,1.068702,2.816794
1609459289,549,-0.578125,-0.7666016,-0.06982422,7.335878,10.15267,10.27481
1609459289,859,-0.7573242,-0.684082,0.2089844,29.01526,-7.389313,-21.77863
1609459290,0,-0.6376953,-0.7290039,0.1669922,14.65649,8.389313,-9.175572
1609459290,304,-0.6772461,-0.6699219,0.1235352,3.80916,4.442748,-3.251908
1609459290,553,-0.543457,-0.8100585,0.1582031,2.343511,0.687023,-0.519084
1609459290,803,-0.5522461,-0.6645508,0.2504883,-16.31298,-12.62595,-7.038167
1609459291,0,-0.5263672,-0.6518555,0.2817383,-3.312977,20.86259,4.419847
1609459291,255,-0.6962891,-0.6582031,0.2158203,-2.80916,29.03053,2.89313
1609459291,508,-0.6513672,-0.8100585,0.1245117,-13.34351,-24.8855,-6.045802
1609459291,762,-0.5288086,-0.5874023,0.2216797,-9.679389,-58.90077,7.572519
1609459292,0,-0.4365234,-0.7348633,0.2363281,11.33588,-39.40458,-45.65649
1609459292,254,-0.2016602,-0.8603517,0.480957,-18.83206,-57.50382,4.244275
1609459292,509,-0.1538086,-0.7548828,0.4819336,-0.6335878,17.43511,37.12214
1609459292,765,-0.703125,-0.5917969,0.2163086,22.9313,91.68701,31.32825
1609459293,0,-0.5556641,-0.2592773,0.1782227,-4.839694,15.48092,11.91603
1609459293,259,-0.9462891,-1.27832,0.2817383,-81.35114,-24.41985,-33.9084
1609459293,517,-0.4990234,-0.8730469,-0.01318359,-33.54198,-5.664122,-28.99237
1609459294,0,-0.3300781,-0.8569336,-0.00048828,-16.24427,-10.65649,-49.76336
1609459294,255,-0.1577148,-0.3330078,-0.04736328,6.89313,-3.465649,-27.16794
1609459294,563,-0.1206055,-0.9697266,0.04345703,18.80153,49.35115,-12.01527
1609459294,823,-0.1279297,-1.004883,0.01074219,-5.824428,48.94656,-38.87023
1609459295,0,0.00097656,-0.8837891,0.00634766,19.60305,5.679389,-26.86259
1609459295,268,0.2866211,-0.9658203,0.01025391,-13.42748,24.05343,30.37405
1609459295,523,0.1621094,-1.026367,-0.06201172,-15.74046,-12.93893,15.0
1609459295,780,-0.3364258,-0.8593751,0.02832031,-28.35114,-20.22901,21.32061
1609459296,0,0.1958008,-0.8071289,0.2075196,0.8015267,100.7786,-4.442748
1609459296,263,0.08007812,-1.805176,-0.1694336,79.32061,95.5649,-50.13741
1609459296,524,-0.2744141,-0.01611328,-0.4140625,-22.54962,-28.16031,1.366412
1609459296,787,0.1079102,-0.7241211,0.2270508,-28.15267,-12.35114,-14.29771
1609459297,0,-0.487793,-1.938477,-0.6699219,117.0763,161.3359,-21.57252
1609459297,264,-0.03076172,0.125,-0.309082,40.58015,98.19846,-93.89313
1609459297,525,0.1342773,-0.7368164,0.2641602,-35.60305,-12.30534,7.541985
1609459297,785,-0.6865234,-1.866211,-0.6953125,71.89313,147.5038,18.9084
1609459298,0,-0.1079102,-0.175293,-0.4418945,-37.74809,-25.08397,-0.4809161
1609459298,262,0.0600586,-0.6640625,0.2099609,-25.01526,-69.42748,-17.32061
1609459298,580,-0.3349609,-1.230957,-0.5024414,26.30534,55.1145,14.32061
1609459299,0,-0.9677734,-1.356445,-0.2324219,-21.22137,-89.51908,7.557252
1609459299,267,0.4086914,-0.2158203,0.3852539,-15.48855,32.54962,-0.778626
1609459299,535,-0.3671875,-0.7182617,-0.5302734,-13.67939,-13.89313,-22.03053
1609459299,798,-0.4121093,-1.783203,-0.2226562,-29.0458,-190.7099,24.25191
1609459300,0,0.465332,-0.3833008,0.1811523,25.22137,74.76336,-24.37405
1609459300,263,-0.2309571,-0.6347656,-0.3588867,-2.167939,22.41985,12.81679
1609459300,529,-0.394043,-1.72168,-0.1606445,-38.48855,-140.2061,55.8168
1609459300,797,0.3774414,-0.2978516,0.2299804,5.427481,25.9771,-50.90839
1609459301,0,-0.1953125,-0.7294922,-0.328125,-21.67175,46.41985,17.98473
1609459301,266,-1.23584,-1.615234,-0.2094727,-44.32824,-99.62595,61.27481
1609459301,533,0.1806641,-0.2543945,0.1728516,29.67175,57.9084,-48.21374
1609459302,0,-0.2075196,-0.6518555,-0.3032227,-13.01527,41.41221,0.5877862
1609459302,268,-0.9589844,-1.687988,-0.2124023,-29.05343,-94.59542,9.541985
1609459302,536,0.3359375,-0.1748047,0.4125976,-12.96947,16.8855,-34.22901
1609459302,804,-0.04101562,-0.8867187,-0.2626953,-19.13741,30.35878,11.70229
1609459303,0,-0.5058594,-1.207031,-0.02783203,-62.12977,-130.1069,46.22901
1609459303,271,0.01513672,-0.355957,0.2294922,62.89313,37.23664,-35.42748
1609459303,540,-0.02246094,-0.7021484,-0.1699219,-60.61832,20.45038,-5.374046
1609459303,810,-0.371582,-1.241699,-0.1103516,-35.64885,-130.9084,21.81679
1609459304,0,-0.2319336,-0.9179687,0.06152344,-20.77099,26.16794,-27.73283
1609459304,245,-0.1972656,-0.9135742,-0.2915039,-9.717557,-8.755725,-4.351145
1609459304,495,-0.05371094,-0.8613282,-0.1640625,5.587786,-26.58779,-4.671756
1609459304,748,-0.7192383,-0.8603517,-0.2319336,-9.083969,22.49618,-5.0
1609459305,0,-0.1621094,-0.8740234,0.01855469,-10.0916,-53.22901,-16.09924
1609459305,254,-0.1010742,-0.7148438,0.07714844,-20.73282,-13.81679,-27.25954
1609459305,511,-0.1113281,-1.250488,-0.2866211,-19.74809,-51.35115,-16.71756
1609459306,0,-0.2207031,-0.7641602,-0.3686524,-0.9083969,-107.2214,-6.938931
1609459306,254,0.4638672,-1.414551,-0.1347656,28.03053,-61.32825,-18.43511
1609459306,505,-0.04589844,-0.8417969,0.05761719,11.93893,8.80916,-22.38931
1609459306,767,-0.2368164,-0.9921875,-0.1733398,-4.717557,-32.22137,1.458015
1609459307,0,-0.04736328,-0.9721681,-0.171875,-18.76336,-63.32061,22.14504
1609459307,304,-0.1352539,-0.8876952,-0.06152344,-7.854962,-60.42748,-9.900764
1609459307,560,-0.07226562,-0.9243164,0.03857422,-16.55725,-2.732824,-10.57252
1609459307,813,-0.1577148,-0.9233398,-0.2124023,26.82443,73.0458,-2.328244
1609459308,0,-0.02246094,-0.9912109,-0.1459961,7.38168,14.26718,4.908397
1609459308,254,-0.4140625,-0.7626953,-0.265625,-10.35878,-6.450381,3.717557
1609459308,510,-0.0727539,-0.8413085,0.04394531,-11.9313,-26.94657,1.374046
1609459308,767,-0.2016602,-1.488281,-0.2211914,18.31298,17.84733,-39.63359
1609459309,0,-0.0415039,-0.7822266,-0.09326172,32.10687,18.83969,-18.49618
1609459309,258,0.00244141,-1.095215,0.00683594,-24.15267,-25.52672,16.77099
1609459309,514,-0.234375,-0.9775391,-0.07226562,-12.82443,-54.13741,2.496183
1609459309,771,-0.04052734,-0.8989258,0.1225586,-21.00763,-26.37405,4.59542
1609459310,0,-0.1645508,-1.135742,-0.1645508,22.35114,44.54962,10.72519
1609459310,258,-0.09130858,-0.7138672,-0.1357422,32.30534,14.58779,-7.053435
1609459310,524,-0.3212891,-1.11377,0.1123047,-26.82443,-22.32061,-4.969466
1609459310,786,0.00390625,-0.8588867,0.1616211,-20.90076,-14.84733,13.72519
1609459311,0,-0.1601563,-1.240723,-0.02001953,12.68702,77.70992,-2.343511
1609459311,313,-0.06884766,-0.7973633,-0.04052734,18.23664,-19.19847,-12.16794
1609459311,574,-0.1035156,-1.129395,0.03320312,-43.08397,-44.60305,2.717557
1609459312,0,-0.0258789,-0.8413085,0.1416016,-7.541985,-29.13741,10.81679
1609459312,257,-0.06933594,-1.015625,-0.1040039,19.03053,4.045802,-12.19847
1609459312,514,0.0209961,-0.7700195,-0.0625,30.9542,28.44275,-9.801527
1609459312,775,-0.4077148,-1.126953,0.00048828,-22.69466,-99.53435,8.610687
1609459313,0,-0.08105469,-0.7924805,0.109375,-14.48092,-26.17557,15.12214
1609459313,264,-0.07666016,-1.492676,-0.08740233,4.442748,70.14503,-39.60305
1609459313,531,-0.184082,-0.8417969,-0.1162109,46.45038,48.33588,-12.92367
1609459313,795,0.08496094,-0.9155273,0.02392578,-10.18321,-33.15267,6.641222
1609459314,0,-0.5166016,-1.035156,0.128418,-29.58779,-22.35878,19.0458
1609459314,262,-0.07177734,-0.9428711,0.1088867,-11.46565,60.96183,-3.923664
1609459314,530,-0.2109375,-0.8320313,-0.2104492,47.64885,90.65649,-20.37405
1609459314,793,-0.2163086,-1.476563,-0.05908203,-35.76336,-37.46565,12.82443
1609459315,0,-0.2529297,-0.8813477,0.1074219,-29.70992,-54.73283,19.70992
1609459315,268,-0.0390625,-1.511719,-0.0805664,3.267176,76.49619,-28.62595
1609459315,586,-0.0336914,-0.8994141,-0.2329102,21.38168,65.69466,1.870229
1609459316,0,-0.3310547,-0.8198242,-0.06689453,0.3587786,45.9084,-16.29771
1609459316,265,-0.07910156,-0.8666992,0.07958984,2.885496,50.99237,-5.030534
1609459316,537,-0.02392578,-1.1875,-0.04345703,-4.274809,69.73283,-14.53435
1609459316,804,-0.112793,-0.8491211,-0.2880859,37.99237,79.64122,-3.793893
1609459317,0,-0.2124023,-0.8881836,0.03955078,-2.099237,-0.8625955,-20.21374
1609459317,271,-0.1137695,-0.8041992,0.144043,3.618321,8.954199,-3.786259
1609459317,544,-0.07519531,-1.224121,0.09912108,-6.083969,37.89313,-16.41221
1609459317,817,-0.04052734,-0.9951172,-0.1625977,37.58015,42.24427,-23.87786
1609459318,0,-0.09130858,-1.141113,-0.02392578,-11.54962,24.69466,12.45038
1609459318,310,0.00488281,-1.007813,0.1816406,-7.458015,43.61069,-2.946565
1609459318,562,-0.1665039,-0.9433594,0.02441406,11.16794,84.64122,-9.824428
1609459319,0,0.1054688,-0.9096681,-0.04980469,0.9236641,82.43511,-3.969465
1609459319,252,-0.125,-0.9379884,-0.1791992,-0.4809161,23.56489,2.641221
1609459319,502,-0.2988281,-1.058594,-0.06982422,-12.76336,0.09923664,-14.9771
1609459319,754,-0.03564453,-0.8828125,0.1459961,-13.52672,-21.17557,12.54198
1609459320,0,-0.00878906,-0.9604492,-0.05517578,-7.29771,22.37405,-2.961832
1609459320,254,-0.01855469,-0.8989258,-0.1704102,14.62595,25.38168,-17.27481
1609459320,505,-0.02685547,-1.01123,-0.04541016,-13.16031,34.90076,22.62595
1609459320,762,-0.1289063,-1.012207,0.06298828,-3.442748,13.87023,14.12977
1609459321,0,-0.1831055,-0.9287109,-0.02050781,2.816794,86.71756,11.41221
1609459321,250,-0.1762695,-0.8955078,-0.3051758,11.46565,45.36642,-7.40458
1609459321,504,-0.1049805,-0.9731445,-0.152832,14.0,73.09161,6.427481
1609459321,756,-0.1933594,-0.8227539,0.02832031,4.465649,23.45038,1.40458
1609459322,0,-0.1904297,-1.129883,-0.05273438,1.625954,-3.587786,-17.9542
1609459322,259,-0.109375,-0.9438477,-0.1694336,9.992367,-4.931298,-17.51145
1609459322,513,-0.02246094,-1.131348,0.02197266,-21.0458,-23.18321,16.45802
1609459322,776,-0.06835938,-1.01416,0.06835938,-1.091603,9.664123,-1.0
1609459323,0,-0.03320312,-1.075195,-0.03027344,14.8626,105.4809,-10.32061
1609459323,257,0.07080078,-1.036621,-0.3012695,30.27481,123.3282,5.374046
1609459323,520,-0.04394531,-0.9829102,-0.137207,7.885496,32.45802,5.10687
1609459323,777,-0.3168945,-1.001953,-0.06689453,4.389313,54.0916,-18.51908
1609459324,0,-0.144043,-0.9511718,0.01464844,12.38931,76.19847,-8.977099
1609459324,262,0.1972656,-1.01416,-0.1733398,10.70992,127.6412,6.694657
1609459324,519,-0.07177734,-0.9863282,-0.2299804,17.48092,37.34351,4.732824
1609459325,0,-0.3212891,-0.8564452,-0.08544922,10.35114,49.72519,-16.44275
1609459325,257,-0.02929688,-0.8544922,0.1240234,-0.3435115,45.14504,-1.21374
1609459325,519,0.09326172,-1.033203,-0.1655273,11.24428,86.47327,15.53435
1609459325,783,-0.1147461,-0.8232422,-0.2070312,0.7099237,59.80152,21.71756
1609459326,0,-0.2602539,-0.9287109,-0.1713867,15.23664,56.16031,-16.91603
1609459326,275,-0.09814453,-0.9135742,-0.02832031,-2.687023,45.03817,-15.87786
1609459326,539,-0.1098633,-1.003418,-0.140625,20.9313,55.16794,-17.77099
1609459326,801,-0.1328125,-0.8969727,-0.175293,34.00763,33.9313,-13.8626
1609459327,0,-0.4082031,-0.7431641,-0.1015625,-158.5649,-47.25954,115.2519
1609459327,261,-0.7358398,-0.746582,-0.2646484,-79.23664,15.0229,55.16794
1609459327,524,-0.5166016,-0.621582,-0.4384766,-5.977099,-6.687023,-15.38931
1609459327,793,-0.6518555,-0.7045898,-0.6787109,-36.30534,-1.664122,7.763359
1609459328,0,-0.7949218,-0.6147461,-0.78125,12.85496,-45.22901,-5.687023
1609459328,317,-0.6430664,-0.7709961,-0.449707,46.13741,-71.72519,-8.519084
1609459328,581,-0.8681641,-0.7250977,0.5141602,64.43511,-61.54198,-101.8702
1609459329,0,-0.2197266,-0.8110351,0.5029297,62.12977,-9.328244,-32.36641
1609459329,263,-0.159668,-0.7314453,0.4956055,15.83206,-25.22137,-18.54962
1609459329,531,0.1772461,-0.7661133,0.6430664,-38.54962,-36.37405,22.55725
1609459329,800,0.0415039,-0.8935548,0.4365234,-43.20611,14.07633,10.93893
1609459330,0,-0.2412109,-0.9956055,0.2011719,-5.244275,7.137404,1.519084
1609459330,268,-0.2211914,-0.9296875,0.3232422,4.10687,12.26718,0.3664123
1609459330,538,-0.2050781,-0.9199218,0.3227539,27.22901,-8.641221,-2.007634
1609459330,806,-0.1245117,-0.8642578,0.3759766,26.14504,-5.59542,-17.51145
1609459331,0,0.06201172,-0.8662109,0.4526367,25.47328,-10.52672,-1.549618
1609459331,270,0.06445312,-0.6162109,0.6064453,44.24427,-39.71756,-19.34351
1609459331,536,0.3208008,-0.4926758,0.5639648,-1.053435,-16.12214,-36.75573
1609459331,804,0.4677734,-0.1547852,0.8764649,74.32825,5.320611,-79.35878
1609459332,0,1.140625,-0.2641602,0.6547852,-54.53435,-112.2824,19.22901
1609459332,272,1.031738,-0.2758789,0.5541992,5.450381,22.47328,3.381679
1609459332,593,0.3818359,0.00195312,0.6914063,4.625954,63.12214,-7.778626
1609459333,0,0.3129883,0.1533203,0.9975585,4.351145,27.87786,-27.64122
1609459333,252,-0.07861328,-0.0336914,0.9228517,-1.419847,-8.450381,-9.610687
1609459333,501,0.262207,0.04736328,1.016602,4.022901,-19.76336,11.85496
1609459333,752,0.1479492,0.1376953,0.8833008,-5.236641,-6.961833,-0.9770992
1609459334,0,0.2285156,0.1181641,0.8999023,0.6412213,0.1908397,-7.625954
1609459334,255,0.2309571,0.1074219,0.9326172,-3.679389,-0.8931297,2.503817
1609459334,509,0.203125,0.09521483,0.9067384,-3.458015,-1.717557,0.2290076
1609459334,762,0.2358398,0.09033203,0.9106445,-3.099237,-0.4122138,-1.10687
1609459335,0,0.2294922,0.07861328,0.9101563,-3.167939,1.022901,-1.442748
1609459335,252,0.1977539,0.1035156,0.8920898,-1.671756,-5.129771,-1.419847
1609459335,503,0.2480469,0.1088867,0.9145508,-3.770992,-0.1068702,-0.8473283
1609459335,759,0.2666016,0.1020508,0.918457,-2.59542,5.503816,-1.366412
1609459336,0,0.2426758,0.1079102,0.9169922,-1.793893,1.022901,-1.748092
1609459336,256,0.2255859,0.1074219,0.9199218,-3.59542,0.3435115,-0.6335878
1609459336,516,0.2480469,0.1020508,0.8989258,-2.458015,0.2900764,-1.618321
1609459336,825,0.2290039,0.1069336,0.9145508,-2.29771,0.4503817,-1.061069
1609459337,0,0.2309571,0.1054688,0.9121094,-3.633588,2.603053,0.1374046
1609459337,258,0.2294922,0.1123047,0.918457,-3.236641,-1.167939,-0.8167939
1609459337,511,0.2324219,0.1420898,0.9199218,-5.732824,4.992366,-0.2290076
1609459338,0,0.1806641,0.1025391,0.9179687,-10.73282,8.80916,0.8396946
1609459338,259,0.07958984,0.06591797,1.060547,-25.15267,-15.75572,6.61832
1609459338,525,0.1948242,-0.0571289,0.9418945,-21.72519,-17.64886,11.29008
1609459338,786,0.3500976,-0.3115234,0.9121094,-44.16031,-28.50382,29.30534
1609459339,0,0.2700195,-0.3930664,0.7133789,-5.38168,-16.03817,23.60305
1609459339,258,0.4082031,-0.5717773,0.8022461,-20.13741,-8.923664,19.99237
1609459339,516,0.3452148,-0.6103516,0.7783203,-28.37405,0.6793893,13.27481
1609459339,775,0.2695313,-0.6049805,0.6884766,-11.31298,10.61069,41.12214
1609459340,0,0.1206055,-0.6328125,0.7045898,-21.91603,34.73283,51.1145
1609459340,262,-0.2348633,-0.559082,0.5019531,-29.16031,89.10687,71.10687
1609459340,525,-0.8056641,-0.800293,-0.02294922,-18.67939,58.53435,-14.54962
1609459340,786,-0.5678711,-0.956543,-0.00146484,4.48855,4.847328,-5.282443
1609459341,0,-0.453125,-0.8300782,0.1040039,-22.14504,31.75572,1.931297
1609459341,270,-0.2929688,-0.3857422,0.02441406,-0.519084,-21.92366,-50.83969
1609459341,548,-0.1665039,-1.024902,0.2197266,4.145038,78.46565,-28.9771
1609459342,0,-0.1342773,-1.010742,0.1015625,1.068702,79.35878,-27.48855
1609459342,265,0.00683594,-0.9121094,-0.1542969,0.1450382,35.80153,-12.51908
1609459342,530,0.1958008,-1.089355,-0.08740233,1.770992,30.75572,9.603053
1609459342,797,0.0,-0.9604492,-0.1259766,11.48092,-13.63359,29.38168
1609459343,0,-0.3344727,-0.5473633,0.3383789,-12.05344,27.99237,47.80916
1609459343,263,-0.1953125,-0.8881836,-0.1796875,103.9847,15.20611,70.44275
1609459343,526,-0.9575195,-2.604492,1.366211,-246.3282,-248.1832,222.1832
1609459343,790,-0.2260742,0.8271483,0.02832031,144.3664,-115.1298,-34.41985
1609459344,0,0.07958984,0.1728516,1.159668,-21.9084,-96.09161,-10.77099
1609459344,265,-0.1049805,0.2475586,0.8764649,-33.76336,60.92366,-9.541985
1609459344,536,-0.2895508,-0.0571289,0.8720703,-19.70992,21.0687,-5.053435
1609459344,806,-0.1621094,0.02441406,1.056152,-28.99237,94.55726,-36.99237
1609459345,0,-0.1640625,-0.4487305,0.3959961,7.694657,7.541985,21.01527
1609459345,316,-0.7006836,0.1025391,0.4946289,-11.83206,-16.8855,-16.55725
1609459345,580,-1.041504,-0.3686524,0.4521484,-6.251908,55.9542,0.6259542
1609459346,0,-0.9130859,-0.3203125,0.4086914,-34.0229,42.90076,11.08397
1609459346,268,-0.8691406,-0.3818359,0.05078125,-19.92366,26.77099,-37.35878
1609459346,536,-0.8842773,-0.4643555,0.00585938,-34.32061,5.664122,-30.09924
1609459346,804,-0.6586914,-0.7539063,0.1000977,-12.22137,21.24427,-13.93893
1609459347,0,-0.7583008,-0.6826172,-0.03857422,-12.48092,3.29771,-3.229008
1609459347,271,-0.8017578,-0.5996094,-0.05273438,-10.96183,-4.732824,-3.923664
1609459347,575,-0.7270508,-0.7646484,-0.03222656,-18.70992,-29.79389,-23.92366
1609459347,825,-0.5561523,-0.7685547,0.04003906,3.732824,-9.19084,-55.94656
1609459348,0,-0.3066406,-0.9057616,0.03271484,-5.946565,-27.75572,-6.519084
1609459348,256,-0.7871094,-0.9433594,0.03808594,40.03053,-27.92366,-14.80916
1609459348,508,-0.3168945,-0.7792969,0.4506836,65.00764,-77.12214,26.79389
1609459348,762,0.06591797,-0.6391602,0.6855469,-7.793893,20.64122,4.91603
1609459349,0,-0.1879883,-0.7402344,0.5244141,3.625954,83.41222,-8.435115
1609459349,250,-0.6621094,-0.5712891,0.3173828,-46.8626,17.76336,12.74046
1609459349,554,-0.8085938,-1.35498,0.2177734,-75.69466,-8.167939,-6.610687
1609459350,0,-0.5703125,-0.9101563,-0.06689453,-36.29008,-14.43511,-31.86259
1609459350,255,-0.2744141,-0.8647461,-0.0522461,-77.771,-36.09924,-32.56488
1609459350,512,-0.1191406,-0.6337891,-0.1152344,-18.43511,-9.030535,5.442748
1609459350,763,-0.08740233,-1.005371,-0.1450195,22.83969,-10.75572,2.435115
1609459351,0,-0.3500976,-0.6796875,-0.06152344,18.63359,17.01527,2.572519
1609459351,257,-0.2236328,-0.8623048,-0.05322266,11.21374,51.53435,-20.13741
1609459351,514,-0.1782227,-1.125488,-0.00146484,-6.969466,28.62595,-21.42748
1609459351,772,-0.09179688,-0.7739258,-0.1748047,25.72519,71.96947,14.43511
1609459352,0,-0.3994141,-1.068359,-0.2529297,24.27481,27.98474,4.725191
1609459352,262,-0.3842774,-0.7661133,-0.09228517,-19.90076,-41.9542,-0.519084
1609459352,522,-0.09570312,-0.9135742,0.09082031,-33.47328,-24.70992,-11.63359
1609459352,776,-0.2143554,-1.247559,-0.1328125,-10.90076,29.87786,-19.74809
1609459353,0,-0.09716797,-0.8496094,-0.1669922,45.25954,19.46565,-14.64886
1609459353,263,-0.2138672,-1.248047,-0.0600586,-20.0,-14.83206,8.969465
1609459353,521,-0.1464844,-0.8149415,0.0390625,-29.0687,-86.65649,17.00763
1609459353,831,-0.1186523,-1.061035,0.08984375,-21.76336,-5.61832,1.992366
1609459354,0,-0.1835938,-0.8168945,-0.1513672,50.62596,58.54962,-35.14504
1609459354,262,-0.05517578,-1.007324,0.00634766,-0.8396946,6.709924,-3.083969
1609459354,528,-0.3457031,-0.855957,-0.1240234,-10.00763,-39.1145,10.19847
1609459354,793,0.02050781,-0.8881836,0.1391602,-20.30534,-24.46565,13.25954
1609459355,0,-0.1162109,-1.166992,-0.05957031,-1.473282,23.77099,-3.19084
1609459355,262,-0.01171875,-0.7675782,-0.1435547,51.38168,57.83207,-16.93893
1609459355,527,-0.1479492,-1.17627,0.02978516,-57.28244,-82.86259,48.45802
1609459356,0,-0.2529297,-0.6533203,-0.1411133,-11.91603,-22.92366,6.580153
1609459356,264,-0.1274414,-0.9291992,0.1533203,-2.70229,-11.35878,-11.25191
1609459356,527,0.03710938,-1.039551,-0.08984375,18.54962,107.6794,-10.82443
1609459356,789,-0.05078125,-0.8217773,0.0366211,33.69466,47.25191,-24.66412
1609459357,0,-0.08984375,-1.169434,0.1455078,-2.709924,29.06107,-26.34351
1609459357,260,0.06152344,-0.8735351,0.2275391,-18.87786,35.0916,2.305344
1609459357,525,-0.05664062,-0.9272461,0.2309571,-6.954198,50.16031,0.2671756
1609459357,796,-0.1254883,-1.016113,-0.04003906,-22.48092,25.44275,-12.72519
1609459358,0,-0.06738281,-1.005371,-0.1552734,-9.450381,1.229008,-3.450382
1609459358,266,-0.1015625,-0.9375,-0.0756836,-2.969465,4.603054,-2.389313
1609459358,538,-0.06396484,-0.9531249,-0.0078125,-3.89313,-3.160305,8.938931
1609459359,0,-0.1049805,-0.9985351,-0.03710938,-3.091603,-3.641222,0.9541985
1609459359,264,-0.1430664,-0.956543,-0.01708984,-2.351145,2.381679,-2.419847
1609459359,536,-0.1186523,-0.9506836,-0.0078125,-3.320611,2.229008,-2.007634