Ax,Ay,Az,Gx,Gy,Gz
0.7397461,0.02001953,0.65625,24.74046,20.48092,44.35115
0.7226563,0.04833984,0.6987305,33.82443,-0.4198473,-0.8625955
0.6791992,0.190918,0.753418,21.71756,22.92366,-24.32825
0.8408203,0.3886719,0.6757813,-22.08397,-16.99237,-8.236641
0.706543,0.425293,0.527832,36.71756,-10.29771,43.43512
0.918457,0.1323242,0.394043,28.45038,4.038168,62.32824
0.8945313,0.03515625,0.5947266,-3.335878,22.71756,12.78626
0.7553711,-0.01757812,0.5615234,-12.09924,-12.25191,5.122138
0.9243164,0.02441406,0.4614258,10.91603,-24.1145,2.954198
0.8652344,0.02050781,0.4541016,25.54962,-14.54198,18.25954
1.010254,0.1103516,0.4838867,-8.251908,6.793893,-36.34351
0.8989258,0.3251953,0.3330078,-28.34351,5.748092,-15.61832
0.8349609,0.07910156,0.3989258,-61.84733,-1.931298,25.26718
0.9199219,-0.09716797,0.4438477,-10.68702,14.00763,-0.5267176
0.9799805,-0.1748047,0.46875,-3.206107,-6.70229,11.00763
0.9057617,0.1396484,0.453125,63.53435,-7.053435,-14
0.9575195,0.105957,0.6782227,-1.236641,58.83206,50.60305
0.793457,-0.3173828,0.4580078,-44.16794,23.76336,-15.98473
0.7338867,-0.09228517,0.6455078,-74.96947,37.77863,-22.54198
1.07666,0.2548828,0.8188477,-6.396946,73.47327,-26.77863
0.6362305,0.1396484,0.5839844,24.1145,16.46565,-17.16031
0.5322266,0.02880859,0.7988281,-15.85496,75.43511,13.00763
0.5585938,-0.2182617,1.022949,5.08397,82.0229,56.90076
0.1005859,-0.005859375,0.8999023,36.96947,29.77862,-52.40458
-0.008789062,0.1181641,0.8208008,-65.9542,-13.66412,-89.83206
-0.005371094,0.06494141,0.9355469,-5.21374,21.0458,20.12977
-0.07421875,0.06933594,1.185059,-25.70229,18.0458,22.15267
0.006835938,-0.09082031,0.9858398,-3.961832,-22.53435,35.0229
-0.4077148,-0.04541016,0.7543945,58.36641,7.40458,-10.22901
-0.1679688,0.2587891,1.035156,20.77863,7.40458,-18.80916
-0.03857422,0.1347656,1.052246,-12.61832,36.35115,-6.114504
0.1186523,0.009765625,0.9604492,3.351145,64.08397,43.38168
-0.1845703,0.1040039,0.9238281,-14.39695,-31.35878,40.75573
-0.5146484,0.0546875,0.7836914,50.10687,-30.33588,-8.099236
-0.05371094,0.06982422,0.8291016,-53.71756,-25.06107,-53.38168
0.137207,0.02929688,1.027344,-10.9771,58.89313,-4.244275
0.07861328,0.1567383,1.045898,81.74046,-2.557252,9.091603
0.06787109,0.2250977,0.8793945,-3.862595,-30.28244,-42.21374
0.4057617,0.02490234,1.190918,-6.519084,-79.8168,-67.38168
0.2871094,0.09521483,0.7348633,-37.90076,31.65649,-110.9618
0.1831055,-0.1791992,1.027344,-0.007633588,23.64122,-86.32825
0.1445313,-0.01611328,0.9711914,10.53435,-30.09924,-126.9466
0.3037109,0.1767578,1.053711,-14.66412,-38.19848,-110.3893
0.1660156,0.2504883,0.9228516,-33.78626,7.572519,-75.19847
0.1518555,0.1313477,1.095215,-1.427481,-8.259542,-52.1832
0.0625,0.03173828,0.9414063,5.396946,11.13741,-5.687023
-0.0390625,0.1533203,1.019043,15.45038,-5.10687,5.312977
0.2226563,0.09667969,1.094238,13.73282,7.290076,3.358779
0.05859375,0.1445313,0.9150391,-20.79389,38.63359,60.14504
-0.1425781,0.2138672,1.056641,-3.244275,40.82443,7.992366
-0.2890625,0.3168945,0.8071289,-13.45038,-42.93893,25.34351
0.1787109,-0.2509766,0.9160156,-48.55725,-57.19847,-75.83969
0.2573242,-0.05371094,0.5932617,-6.053435,-1.21374,-23.41985
0.3300781,-0.009277344,0.840332,-1.755725,-20.20611,51.41985
0.5458984,-0.6245117,0.7939454,-30.90076,-35.43512,38.87023
0.4370117,-0.4760742,0.6508789,9.580153,2.885496,-6.320611
0.6499023,-0.4291992,0.6674805,-17.66412,10.50382,-28.47328
0.5703125,-0.4174805,0.6508789,-11.74809,-0.5572519,-2.167939
0.5078125,-0.4741211,0.7055664,-24.32061,4.70229,-6.007634
0.4848633,-0.5678711,0.6884766,-42.8168,35.0229,-41.53435
0.3642578,-0.6699219,0.6191406,5.053435,-13.32824,11.29008
0.3686523,-0.6069336,0.6132813,42.41221,-50.48092,57.39695
0.7792969,-0.5864258,0.559082,78.54962,-81.35878,103.5038
0.6074219,-0.4023438,0.887207,75.08397,10.76336,86.93893
0.3618164,-0.3583984,0.987793,26.35114,-45.26717,87.03053
0.324707,-0.2426758,0.7490234,1.167939,-7.091603,-5.648855
0.3183594,-0.2851563,0.9155273,8.709924,16.39695,-12.28244
0.3740234,-0.331543,0.894043,-7.274809,11.91603,-9.961832
0.40625,-0.2905273,0.9716797,-18.15267,-15.77863,4.717557
0.3198242,-0.1992188,0.9052734,-1.328244,13.78626,-13.35114
0.2719727,-0.1245117,0.9233398,10.52672,24.61832,-16.66412
0.1748047,-0.1147461,1.02002,-1.229008,13.32061,7.366412
0.06982422,-0.2773438,0.9082031,-3.053435,22.45038,-22.61069
0.1459961,-0.1132813,1.197754,-8.053435,-13.78626,7.160306
0.0546875,-0.1074219,1.048828,41.25954,-15.9542,-14.38168
0.2084961,0.215332,0.8417969,-36.70992,-13.81679,-64.89313
0.1430664,0.01074219,0.8916016,-11.51908,-1.129771,-26.9084
0.1713867,0.05517578,1.054199,-18.27481,11.44275,-29.57252
0.09375,-0.2431641,0.9990234,17.72519,23.1145,17.55725
-0.06640625,-0.2163086,0.9130859,35.0916,-18.16794,-35.09924
0.1171875,0.2128906,1.027832,32.1832,16.58779,22.93893
-0.05761719,-0.03076172,0.7607422,-5.938932,-18.32061,-42.93893
0.1567383,-0.3823242,1.11377,-41.38168,-42.29008,18.06107
0.1030273,-0.2773438,0.9555664,-4.557252,-6.725191,6.557252
-0.005859375,-0.1367188,0.6708984,10.60305,8.725191,-16.92366
0.02392578,0.02734375,1.367188,-5.175572,-23.1145,-17.32061
0.140625,0.1123047,0.9204102,-30.14504,-14.54962,21.06107
0.01416016,-0.02587891,0.9594727,-16.20611,19.34351,19.38168
-0.1376953,0.01416016,0.9848633,-17.82443,-16.09924,-0.8244275
-0.04736328,-0.1064453,0.7197266,14.03817,7.007634,-14.54198
0.04541016,0.1025391,1.327148,-17.21374,-46.03053,8.633588
-0.06201172,0.05175781,0.8203125,-12.79389,-16.31298,-12.51908
-0.05224609,-0.03125,0.9155273,-25.14504,30.0687,22.38931
-0.1791992,-0.1796875,1.055176,-0.6564885,-2.251908,8.40458
-0.1196289,-0.1137695,0.6591797,11.12214,-7.40458,-8.053435
-0.2080078,0.1020508,1.260254,4.89313,-32.36641,-12.22901
-0.01269531,0.02539062,0.7192383,-15.39695,-7.61832,9.885496
0.03417969,0.001464844,1.431641,-27.50382,27.8855,31.22901
-0.06933594,-0.1103516,0.8222656,-9.870229,-11.19084,21.34351
-0.004882812,-0.02880859,0.6850586,28.81679,27.66412,3.114504
-0.2109375,-0.05957031,1.181152,-6.572519,-33.46565,24.41222
-0.1352539,0.03027344,0.6787109,-16.12214,0.3740458,34.72519
-0.05957031,-0.246582,1.266113,-52.70229,30.47328,65.42748
-0.07226563,-0.1484375,0.8183594,-108.9008,27.35114,65.17558
-0.171875,-0.07177734,0.9726563,123.5649,-92.45802,29.51908
-0.5517578,0.078125,1.12793,-1.671756,17.12977,48.62595
-0.5205078,0.1391602,1.035156,-2.343511,71.58015,5.053435
-0.4194336,-0.03955078,0.9770508,-53.16794,6.59542,67.92367
-0.3413086,-0.05761719,0.8447266,-30.65649,1.236641,62.54198
-0.4833984,0.06738281,0.859375,2.793893,4.19084,20.33588
-0.2871094,0.1625977,0.953125,19.74046,7.480916,27.49618
-0.3647461,0.2539063,0.7631836,4.78626,14.45038,22.54198
-0.3129883,0.3188477,0.8706055,-18.22901,1.854962,20.38931
-0.4038086,0.269043,0.769043,-23.22901,-18.93893,27.14504
-0.5024414,0.2348633,1.146973,-27.78626,-5.358778,-2.89313
-0.2758789,0.04443359,0.6538086,26.08397,2.335878,-2
-0.5239258,0.4873046,1.127441,-23.22901,29.31298,-17.57252
-0.2856445,0.1640625,0.675293,-7.480916,0.3816794,6.709924
-0.2485352,0.09863281,0.7558594,19.01527,-0.3587786,19.29008
-0.7578125,0.2646484,1.033691,-49.37405,-17.83969,7.778626
-0.2333984,0.07714844,0.6928711,18.03053,7.412214,-9.587787
-0.421875,0.3515625,1.081543,-11.98473,-16.05343,-0.3358779
-0.2304688,0.1918945,0.7265625,-23.28244,-12.69466,-6.458015
-0.2553711,0.2924805,1.033203,3.534351,30.17557,6.938932
-0.3583984,0.1333008,0.8427734,-49.29771,-30.92366,28.78626
-0.2685547,0.1464844,0.7021484,24.65649,-2.816794,-13.75572
-0.1962891,0.3393555,1.304199,-16.70229,12.00763,-2.847328
-0.2446289,0.2451172,0.737793,-26.34351,-2.229008,2.206107
-0.1132813,0.1049805,0.7763672,-11.52672,29.52672,22.03817
-0.4316407,0.1699219,1.245605,-37.79389,4.725191,9.625955
-0.3374023,-0.07324219,0.7504883,22.58779,21.44275,1.503817
-0.2021484,0.2163086,1.366211,-40.40458,44.12977,47.06107
-0.2539063,0.1513672,0.7758789,-42.7939,-0.09160305,67.45038
-0.5068359,0.2285156,0.9541016,-34.94656,-15.58779,84.35114
-0.277832,-0.004882812,0.8183594,-57.41985,12.0687,82.28244
-0.4013672,0.04541016,0.9248047,7.931298,30.44275,53.35115
-0.2773438,0.262207,0.9423828,21.10687,19.75573,42.8168
-0.277832,0.2421875,0.8549805,-48.21374,-1.183206,43.71756
-0.09472656,-0.01171875,1.192871,-49.48855,1.793893,50.12214
-0.144043,0.04248047,0.8334961,-27.07634,2.618321,22.54198
-0.2416992,0.05126953,0.7519531,24.24427,0.8549618,14.57252
-0.2158203,0.2202148,1.268066,-40.68702,-2.419847,16.67939
-0.2045898,0.1796875,0.8222656,-29.26718,-4.740458,11.61832
-0.190918,0.09472656,0.8803711,4.687023,25.85496,23.57252
-0.4550781,0.001953125,1.165039,-34.63359,-23.23664,-0.3129771
-0.2695313,-0.007324219,0.1875,9.59542,-20.80916,-19.44275
-0.3710938,0.203125,1.022949,16.73282,-0.1526718,0.1603054
-0.3623047,0.3334961,0.9628906,-23.49618,-15.79389,22.15267
-0.253418,0.1455078,0.7001953,-24.63359,3.541985,44.83206
-0.418457,0.1054688,1.36084,-24.17557,-52.17557,15.20611
-0.1567383,0.1030273,0.6972656,16.14504,17.41985,-2.030534
-0.2988281,0.2836914,1.043457,13.13741,23.8855,0.4580153
-0.3276367,0.3706055,0.9038086,-23.08397,-11.67176,36.20611
-0.1367188,0.2177734,0.7099609,-24.19847,2.580153,12.64886
-0.6113281,0.3041992,1.20752,39.05344,-49.41985,-22.93893
-0.2226563,0.1054688,0.6953125,8.145039,-1.358779,-20.50382
-0.284668,0.1220703,0.8583984,48.03817,27.44275,-29.0458
-0.3266602,0.3139648,1.070313,-7.610687,-11.61069,14.03817
-0.1542969,0.1694336,0.6484375,-16.44275,1.343511,18.64122
-0.6420898,0.2871094,1.256348,34.38168,-19.09924,-13.44275
-0.3071289,0.1591797,0.5917969,23.66412,29.48092,3.694656
-0.3774414,0.3881836,1.375977,-84.80916,13.48092,53.16031
-0.2304688,0.2685547,0.6669922,-30.83206,26.61069,63.23664
-0.4819336,0.152832,1.043945,-8.824428,-10.17557,108.9618
-0.3178711,0.06445313,0.7128906,-32.61069,15.52672,64.65649
-0.4633789,0.1557617,0.8657228,1.198473,35.78626,31.74809
-0.1337891,0.2495117,0.8974609,27.82443,11.80153,34.9084
-0.2895508,0.2895508,0.8881836,-39.60305,-3.145038,52.60305
-0.2109375,0.2353516,1.122559,-39.03817,-0.961832,57
-0.2973633,0.190918,0.8286134,-18.49618,-0.1221374,10.45038
-0.3095703,0.3955078,0.984375,3.10687,-13.60305,-3.412214
-0.2822266,0.3789063,0.7426758,5.465649,-8.633588,-4.007634
-0.1083984,0.1542969,0.652832,-23.9771,3.770992,21.64886
-0.3007813,0.2993164,1.223633,-43.00763,-13.27481,3.78626
-0.1162109,0.1259766,0.6142578,45.93893,31.47328,-27.32825
-0.3369141,0.3823242,1.227539,-10.29008,11.70229,8.679389
-0.1928711,0.2412109,0.7241211,-16.54962,6.030534,-5.557252
-0.2158203,0.2119141,0.7841797,6.08397,29.80916,21.54198
-0.3496094,0.2285156,1.113281,-32.0687,-5.374046,4.656488
-0.2036133,0.1328125,0.6630859,13.16031,9.80916,-6.236641
-0.3710938,0.1577148,1.269531,-12.23664,-27.10687,0.05343511
-0.2592773,0.2407227,0.640625,-20.87786,-6.022901,-3.580153
-0.3911133,0.2680664,1.183105,-8.335877,10.73282,2.549618
-0.2167969,0.1958008,0.8842772,10.45038,0.1755725,14.65649
-0.2368164,0.1186523,0.6254883,43.19847,20.12977,15.12214
-0.3745117,0.2578125,1.231934,-17.87023,-23.35878,10.98473
-0.2016602,0.2714844,0.6845703,-27.03817,18.96183,34.06107
-0.3525391,0.2246094,1.182129,-41.12214,42.22901,75.63359
-0.05517578,0.1010742,0.9501953,-64.9771,4.877862,96.94656
-0.1733398,-0.05810547,0.9521484,-38.27481,1.08397,93.1832
-0.2026367,0.08544922,1.062012,13.08397,14.54198,90.0229
0.03173828,0.3271484,0.9692383,37.63359,28.48855,45.75573
-0.1469727,0.3974609,0.7353516,8.305344,37.65649,44.64885
-0.3041992,0.4667969,0.7866211,14.29771,20.25954,37.42748
-0.3398438,0.605957,0.9711914,-43.70229,-13.69466,23.82443
-0.2382813,0.1855469,0.8691406,-41.9084,14.60305,16.53435
-0.2021484,0.1206055,0.7885742,8.312977,17.0916,20.34351
-0.3911133,0.3076172,1.084473,33.34351,-5.251908,-3.183206
-0.1132813,0.3457031,0.8178711,2.656489,-5.877862,-35.32061
-0.2944336,0.4580078,0.8393555,0.1908397,-2.145038,6.908397
-0.2172852,0.4223633,1.143066,-42.36641,-3.679389,16.72519
-0.1547852,0.1821289,0.7788086,-14.30534,17.78626,19.67175
-0.2797852,0.1552734,0.8417969,-1.435114,-2.206107,7.91603
-0.3574219,0.3266602,1.128418,16.44275,-28.64886,-28.67939
-0.09521483,0.2890625,0.7797852,30.80916,6.167939,-23.66412
-0.2763672,0.3920898,0.7543945,4.954198,-4.748092,-9.496183
-0.3222656,0.4765625,0.7963867,8.145039,-8.389313,-7.793893
-0.05859375,0.2416992,0.90625,-24.20611,17.58015,-1.580153
-0.1953125,0.09375,0.8032227,-23.77099,1.938931,12.60305
-0.2954102,0.1230469,0.881836,-0.2977099,-3.885496,-14.14504
-0.3647461,0.2290039,1.145996,42.57252,-29.77099,-26.28244
-0.1420898,0.2202148,0.800293,17.85496,11.91603,-38.22901
-0.2734375,0.3413086,0.8081055,-1.740458,-10.33588,-28.94657
-0.3867188,0.3271484,0.9331055,-30.80153,-18.0229,-46.9313
-0.1953125,0.190918,1.033691,-12.37405,-9.160305,-29.0687
-0.215332,0.1176758,0.8935547,22.42748,4.526718,-47.73283
-0.3706055,0.1767578,0.8354492,48.23664,-7.198473,-65.94656
-0.07324219,0.3056641,0.9580078,27.87786,-13.19084,-40.70992
-0.269043,0.394043,0.7084961,19.8855,-11.74046,-53.37405
-0.3422852,0.3808594,0.8349609,-9.946565,-17.71756,-64.87786
-0.1748047,0.2421875,1.038086,-17.45802,-18.9313,-21.0458
-0.1523438,0.1113281,0.8842772,6.305344,-19.48092,-32.12214
-0.2910156,0.1547852,0.9301758,26.64886,-9.557252,-36.84733
-0.1723633,0.4272461,1.191406,7.541985,-50.77099,-29.27481
-0.1152344,0.402832,0.6977539,24.03817,2.648855,-24.34351
-0.2485352,0.3505859,0.8051758,0.5801527,-5.343512,-12.50382
-0.2592773,0.4140625,1.033691,-26.17557,-24.26718,17.0458
-0.08935547,0.1230469,0.9384766,-37.73283,10.35878,13.51908
-0.1801758,0.09765625,0.809082,-0.5267176,18.68702,11.72519
-0.3232422,0.2241211,1.04834,47.37405,9.770992,-1.48855
-0.1538086,0.3457031,0.8964844,-3.519084,-8.290076,-23.23664
-0.2470703,0.3896484,0.7998047,6.221374,-1.877863,-13.54962
-0.2641602,0.4257813,1.055176,-25.32825,-6.877862,1.679389
-0.152832,0.1552734,0.9111328,-13.54962,6.885496,13.84733
-0.2319336,0.1845703,0.8081055,-2.793893,6.480916,12.07634
-0.3198242,0.2441406,1.066406,9.748092,-8.167939,-27.87023
-0.09765625,0.3417969,0.9052734,9.969465,0.610687,-25.22137
-0.215332,0.3691406,0.7788086,1.114504,9.877864,-22.8855
-0.2983398,0.3793945,0.84375,-7.580153,-0.8931297,0.3206107
-0.1074219,0.1958008,1.192383,-68.8855,-19.94657,22.70992
-0.06640625,-0.009765625,0.8183594,-13.99237,17.90076,13.13741
-0.2587891,0.1210938,0.8930664,3.099237,-3.374046,10.38931
-0.2172852,0.2983398,1.224609,0.6259542,-33.60305,-16.25954
-0.1235352,0.2827148,0.7807617,7.89313,18.41221,-4.793893
-0.2563477,0.3618164,0.8505859,-10.32061,-1.961832,-3.152672
-0.2617188,0.4423828,1.126953,-33.0458,-10.66412,-0.03816794
-0.1269531,0.1513672,0.9770508,-34.14504,6.816794,17.82443
-0.2514648,0.1469727,0.8378906,5.977099,9.229008,-1.938931
-0.3476563,0.2324219,1.007813,38.8855,11.58015,-33.64122
-0.1225586,0.3291016,0.8417969,23.10687,-13.16031,-56.80153
-0.2773438,0.3505859,0.8046875,9.458015,-13.80916,-40.20611
-0.3188477,0.3574219,0.8740234,-2.320611,-18.34351,-35.14504
-0.1611328,0.2973633,1.100098,-17.99237,-41.39695,-12.22137
-0.1601563,0.1708984,0.9365234,0.2977099,14.29008,-29.36641
-0.2695313,0.2260742,0.9121094,31.74809,-2.007634,-48.50382
-0.3579102,0.394043,1.008789,37.34351,-51.42748,-45.83206
-0.1665039,0.4853516,0.9394531,-8.938931,-19.41221,-49.01527
-0.3144531,0.4331055,0.7783203,-4.21374,-11.39695,-42.46565
-0.409668,0.3583984,1.010254,-27.38931,-48.67176,-40.38931
-0.112793,0.2060547,0.9677734,24.57252,-18.75573,-61.74809
-0.2548828,0.078125,0.9145508,5.824428,-18.99237,-54.9771
-0.2055664,0.2246094,1.072754,23.29771,6,-46.79389
0.00390625,0.3144531,0.9589844,24.76336,15.64886,-52.21374
-0.1865234,0.3056641,0.8256836,2.526718,8.717557,-26.18321
-0.284668,0.3144531,0.8867187,-16.53435,3.916031,-16.03817
-0.1933594,0.1435547,0.9707031,-22.32061,-5,-8.351145
-0.1645508,0.08593751,0.8168945,1.793893,11.90076,9.374045
-0.2978516,0.1357422,0.8588867,0.7099237,2.732824,4.946565
-0.2182617,0.2617188,1.185547,5.10687,-36.03053,-3.984733
-0.1567383,0.2856445,0.8164063,9.290076,12.59542,-18.61832
-0.2729492,0.2792969,0.8364258,1.580153,4.114504,-8.167939
-0.2783203,0.3100586,1.024414,-18.26718,4.824428,7.961832
-0.1591797,0.1166992,0.9443359,-19.09924,12.42748,4.21374
-0.2080078,0.09619141,0.8569336,0.6564885,21.45802,14.35878
-0.2910156,0.1635742,0.9936523,7.312977,-2.923664,0.09160305
-0.03417969,0.2895508,1.095215,-19.61069,-2.007634,0.519084
-0.184082,0.2270508,0.7514648,10.63359,8.641221,-15.03817
-0.2827148,0.3032227,0.8603516,7.053435,-1.862595,-11.70229
-0.296875,0.3041992,1.016602,-35.26717,-8.251908,6.679389
-0.184082,0.1591797,0.9311523,-16.42748,10.21374,-4.480916
-0.1782227,0.1694336,0.8383789,27.67175,17.07634,14.90076
-0.2368164,0.1616211,1.013184,1.687023,-2.80916,-0.6564885
0.03222656,0.2490234,1.041016,-5.70229,14.40458,-10.62595
-0.175293,0.2504883,0.706543,15.21374,4.10687,-24.15267
-0.2954102,0.3500977,0.8422852,-8.351145,-14.16794,-20.15267
-0.3452148,0.3100586,1.069824,-17.85496,-1.89313,-20.53435
-0.1293945,0.1484375,0.9155273,8.083969,1.549618,-7.923664
-0.2001953,0.08593751,0.8061523,-3,12.72519,-27.32061
-0.3369141,0.06542969,1.021973,23.25954,-6.557252,-57.61069
-0.01220703,0.1665039,0.8686523,39.79389,-3.061069,-71.74809
-0.2788086,0.2773438,0.7114258,18.17557,-6.603054,-34.85496
-0.3305664,0.190918,0.8242188,2.351145,-5.557252,-46.66412
-0.1118164,0.1323242,0.9882813,-9.503817,-1.412214,-19.12214
-0.1787109,0.1030273,0.9194336,5.022901,2.175573,-46.64885
-0.309082,0.1049805,0.871582,25.93893,-9.854961,-75.61832
-0.5107422,0.1479492,1.004395,28.67175,-46.10687,-78.77863
-0.2524414,0.2817383,0.940918,31.00763,-12.0687,-50.26717
-0.2983398,0.2851563,0.8984375,-4.709924,-18.39695,-32.67176
-0.1494141,0.2583008,1.26416,-22.54962,-19.83206,3.427481
-0.1274414,0.1230469,0.8491211,-21.29008,-4.862596,-0.4198473
-0.2226563,0.1074219,0.9316406,6.305344,-0.02290076,-9.969465
-0.1625977,0.1977539,1.158203,-12.29008,-38.41221,-44.69466
-0.1855469,0.2700195,0.8124999,12.25191,3.763359,-13.78626
-0.2983398,0.2910156,0.7963867,-4.137404,3.709924,-16.10687
-0.3481445,0.2998047,0.9785156,-18.51145,-6.854962,-16.41221
-0.09472656,0.06884766,1.042969,-21.00763,6.290076,-13.36641
-0.215332,-0.01416016,0.7788086,-23.52672,-3.305344,16.40458
-0.2543945,0.05126953,1.026855,18.79389,1,16.08397
-0.03271484,0.1274414,1.068359,-12.81679,-8.992367,-6.419847
-0.2167969,0.1972656,0.7167969,3.015267,38.29771,0.7557252
-0.2348633,0.3164063,0.9140625,12.37405,10.23664,1.839695
-0.3613281,0.3354492,1.059082,-28.03817,-40.87786,-12.01527
-0.1694336,0.06054688,0.8823242,-35.48092,-1.40458,35.39695
-0.2587891,0.1186523,1.004395,12.83206,-0.3053435,13.64886
-0.06933594,0.3613281,1.092773,5.984733,-3.89313,-0.6717557
-0.184082,0.3427734,0.7548828,19.78626,2.48855,-1.740458
-0.3232422,0.3447266,0.7875977,-11.01527,-9.198473,-12.82443
-0.2358398,0.3134766,1.160645,-25.40458,-20.61069,12.79389
-0.2612305,0.08837891,0.8178711,-19.9313,-0.2671756,38.39695
-0.293457,0.09765625,0.8515625,-9.862596,4.91603,8.099236
-0.5493164,0.265625,0.9995117,31.15267,0.3358779,-30.35878
-0.1240234,0.1870117,0.8515625,-13.60305,8.534351,-8.129771
-0.3125,0.269043,0.815918,-2.725191,6.442748,-2.931298
-0.5664063,0.4057617,0.9067383,22.07634,32.31298,12.1145
-0.2939453,0.2075195,0.9121094,1.938931,13.72519,5.183206
-0.4179688,0.2368164,0.7954102,-3.854962,14.21374,5.832061
-0.6113281,0.3867188,0.8295898,29.16031,-2.687023,-14.83969
-0.4331055,0.409668,0.7006836,-0.7099237,-2.312977,-2.694656
-0.4355469,0.3291016,0.8271484,-13.16794,9.854961,13.15267
-0.4511719,0.2910156,0.7944336,-15.03053,-6.366412,1.679389
-0.5048828,0.3100586,0.7832031,4.045802,-8.801527,-19.67175
-0.5224609,0.3598633,0.9233398,-4.526718,-37.53435,-13.92366
-0.375,0.4833984,0.7197266,12.80153,-10.33588,-11.09924
-0.5825195,0.5048828,0.6694336,17.67175,-2.564886,-13.12214
-0.4223633,0.4189453,0.7939454,-2.618321,2.977099,1.030534
-0.4775391,0.3779297,0.7827148,-10.59542,22.03053,12.55725
-0.5429688,0.3427734,0.7602539,-1.618321,2.938931,-2.320611
-0.4160156,0.4594727,0.9008789,-25.91603,-56.96183,-11.20611
-0.4311523,0.4414063,0.6987305,-1.534351,-9.900764,-8.893129
-0.4711914,0.4130859,0.6469727,-10.33588,3.282443,4.496183
-0.4033203,0.2866211,0.8769531,-8.465649,4.992366,-16.56489
-0.5097656,0.3837891,0.7167969,11.37405,-12.47328,-24.74809
-0.5371094,0.3417969,0.8217773,37.63359,-2.022901,-25.91603
-0.3476563,0.3588867,0.7368164,58.45802,28.96947,-6.099236
-0.5092773,0.3945313,0.6357422,-19.64886,12.80153,36.64122
-0.4560547,0.5869141,0.7089844,-33.91603,15.87786,31.06107
-0.5288086,0.2880859,0.6762695,15.76336,33.12977,8.236641
-0.5742188,0.3920898,0.7348633,-9.709924,-2.229008,-13.21374
-0.618164,0.3828125,0.6171875,16.83206,-19.90076,-38.59542
-0.6396484,0.375,0.756836,61.49618,-23.73282,-52.54198
-0.484375,0.6689454,0.3427734,-2.671756,-54.42748,-67.37405
-0.503418,0.5693359,0.6425781,32.35878,-44.25191,-64.67939
-0.5869141,0.5112305,0.7880859,-45.05344,-44.28244,-46.27481
-0.4091797,0.2954102,0.8222656,72.92367,21.44275,-52.1603
-0.4277344,0.2524414,0.762207,-0.6259542,-0.7709923,-28.86259
-0.5551758,0.3603516,0.7758789,17.20611,12.98473,-11.61832
-0.5161133,0.5952148,0.7441406,41.54962,0.2366412,-17.42748
-0.4824219,0.4711914,0.6054688,-20.41222,-13,-15.64886
-0.6376953,0.465332,0.6396484,-8.702291,-4.137404,-7.740458
-0.4316407,0.4926758,0.8579102,17.64886,-36.25954,-17.58779
-0.4511719,0.2666016,0.6450195,-28.06107,-9.778625,7.022901
-0.5493164,0.1987305,0.862793,12.18321,10.19084,-0.3664122
-0.3276367,0.3530273,0.8217773,-36.03053,16.48855,14.19847
-0.4863281,0.3349609,0.5727539,-20.84733,28.45038,48.51145
-0.5341797,0.3481445,0.8808594,-54.19084,18.0229,49.9542
-0.34375,0.2255859,0.8720703,-69.1145,4.961832,8.832061
-0.3598633,0.08740234,0.921875,-14.61832,-6.801527,-1.687023
-0.4848633,0.2924805,1.097656,39.19847,-12.9084,22.58779
-0.4194336,0.2885742,0.7133789,-2.480916,18.91603,4.625954
-0.6450195,0.3095703,0.8564453,-33.71756,25.48092,24.53435
-0.402832,0.1518555,0.9560546,-38.61832,10.96947,15.75572
-0.4267578,-0.01220703,0.8124999,-28.96183,-27.58778,35.64885
-0.6904297,0.1850586,0.9985352,34.83206,4.763359,32.9542
-0.4057617,0.2045898,0.8017578,-15.43511,25.9771,19.65649
-0.5136719,0.2280273,0.8232422,-38.38931,-12.94656,5.21374
-0.2734375,0.1860352,0.8344727,-19.48855,7.740458,15.58779
-0.4213867,0.1621094,0.7182617,-9.236641,-14.34351,9.458015
-0.753418,0.2822266,0.8471681,-0.9312977,8.59542,-17.53435
-0.4492188,0.3496094,0.7290039,45.05344,29.30534,-12.38168
-0.6303711,0.3618164,0.7792969,-16.37405,-4.236641,-1.748092
-0.3125,0.215332,0.8432617,-8.755725,-12.87786,-28.08397
-0.4150391,0.234375,0.8608398,26.61069,-5.053435,-21.75573
-0.7294922,0.4643555,0.690918,65.16031,-12.1145,-41.8168
-0.4921875,0.4282227,0.5566406,18.0229,-23.49618,-40.68702
-0.6430664,0.4501954,0.6884766,-35.92366,-27.54198,-33.23664
-0.4472656,0.4106445,0.6943359,4.427481,-8.625955,-44.07634
-0.5571289,0.3295898,0.6357422,28.30534,-17.75573,-25.78626
-0.8779297,0.5107422,0.65625,66.61832,0.2519084,-40.19847
-0.4946289,0.4282227,0.5415039,28.59542,-12.09924,-31.83206
-0.6455078,0.4833984,0.6821289,-26.74046,-19.44275,-7.519084
-0.4960938,0.3305664,0.7294922,-18.55725,1.19084,-10.58779
-0.5849609,0.2871094,0.6572266,20.0687,10.56489,2.206107
-0.6616211,0.3984375,0.7402344,23.70992,15,7.358778
-0.5463867,0.4697266,0.5170898,-27.22137,22.61832,15.78626
-0.7250977,0.4516602,0.7539063,-63.03817,6.91603,17.26718
-0.4013672,0.347168,0.703125,-28.19084,25.13741,45.32061
-0.6791992,0.4003906,0.6767578,-14.1145,14.73282,26.74046
-0.4868164,0.5336914,0.6542969,-64.66412,17.9313,29.85496
-0.5610352,0.4614258,0.6875,-54.32824,27.21374,50.07634
-0.5400391,0.2192383,0.9858398,-105.3969,2.633588,81.94656
-0.4912109,0.3344727,0.7070313,-59.93893,47.63359,75.09924
-0.5996093,0.4487305,0.784668,-26.31298,21.67175,35.69466
-0.4794922,0.4052734,0.5888672,-27.40458,28.71756,28.35114
-0.5473633,0.4428711,0.7358398,-28.29771,15.22137,28.94657
-0.3720703,0.222168,0.7495117,-60.80916,9.54962,57.00763
-0.5097656,0.25,0.6586914,-32.87786,23.59542,50.8168
-0.7084961,0.519043,0.7563477,4.442748,4.175572,13.41221
-0.4482422,0.3852539,0.6313477,-13.61069,25.42748,7.251908
-0.5200195,0.4370117,0.8017578,-33.38168,13.47328,21.8855
-0.4189453,0.2485352,0.7094727,-21.77099,21.70229,37.78626
-0.5649414,0.3867188,0.7714844,10.41221,16.06107,15.41985
-0.4663086,0.5009766,0.690918,5.725191,-21.73282,-4.755725
-0.5454102,0.3339844,0.6137695,-10.54198,-2.824427,0.1832061
-0.4697266,0.3999023,1.079102,-30.76336,8.503817,45.19847
-0.40625,0.2329102,0.6459961,-0.2061069,34.87023,25.51145
-0.800293,0.4438477,0.6435547,3.305344,6.572519,9.366412
-0.4541016,0.3603516,0.6425781,7.152672,0.09923664,-13.52672
-0.6342773,0.3500977,0.7402344,-27.61069,-7.984733,3.053435
-0.3999023,0.331543,0.7670898,-33.87023,7.328244,16.82443
-0.5019531,0.2602539,0.6914063,-7.030534,4.427481,18.70229
-0.4931641,0.4604492,0.8061523,29.31298,13.18321,6.694656
-0.4619141,0.3828125,0.5214844,-13.91603,-6.198473,-13.19847
-0.6767578,0.4677734,0.9780273,-0.8473283,19.64122,41.06107
-0.4521484,0.2763672,0.5795898,-8.145039,-3.267176,13.77863
-0.6342773,0.4897461,0.8071289,40.48092,11.73282,-25.77099
-0.3105469,0.3764648,0.5874023,23.45802,-25.09924,-33.63359
-0.605957,0.4726563,0.8881836,-35.99237,10.70229,12.70992
-0.3833008,0.3540039,0.6464844,-4.870229,26.79389,19.38168
-0.6337891,0.3540039,0.7011719,20.41985,4.816794,-1.694656
-0.4165039,0.5478516,0.6518555,19.65649,-41.32824,-39.77862
-0.5883789,0.3168945,0.7553711,-17.51145,-6.068702,-13.50382
-0.4428711,0.293457,0.8525391,-24.83206,9.251908,25.03817
-0.5253906,0.3457031,0.6591797,-2.290076,29.24427,15.57252
-0.496582,0.5957031,0.6669922,16.24427,-7.938932,-4.40458
-0.5126953,0.3920898,0.6298828,-5.725191,-7.625954,-26.64122
-0.4995117,0.328125,0.8842772,-27.60305,8.732824,18.80153
-0.4682617,0.3520508,0.6245117,-0.2900764,7.244275,3.267176
-0.5849609,0.4648438,0.8530273,18.9771,-16.27481,-12.21374
-0.4506836,0.4052734,0.5463867,-8.526717,-19.30534,-23.29771
-0.6518555,0.449707,0.8803711,-48.22138,-14.78626,-0.519084
-0.4116211,0.3374023,0.6743164,1.29771,7.625954,1.954198
-0.612793,0.4199219,0.8193359,27.87023,-23.12977,-21.52672
-0.4145508,0.3935547,0.6816406,16.22901,-20.16794,-19.09924
-0.5161133,0.3686523,0.8466797,-8.351145,6.473282,-20.16794
-0.3867188,0.3759766,0.7700195,-6.992366,-5.748092,10.68702
-0.4985352,0.3896484,0.7792969,-0.2977099,8.38168,0.6030535
-0.4570313,0.2641602,0.7402344,-7.137404,-9.503817,-4.129771
-0.4833984,0.2314453,0.8354492,-11.67939,8.320611,14.80916
-0.4833984,0.2333984,0.8012695,-26.41221,29.70229,38.25191
-0.5649414,0.2680664,0.7250977,-5.969466,20.82443,48.80916
-0.6005859,0.5488281,0.7749023,-2.824427,20.46565,7.961832
-0.4360352,0.4863281,0.6582031,1.030534,20.83206,11.24428
-0.5766602,0.5126953,0.6967773,-22.0687,7.862596,5.580153
-0.355957,0.4262695,1.008301,-15.44275,4.923664,2.549618
-0.3837891,0.184082,0.6459961,-28.85496,1.870229,16.74046
-0.5644531,0.2993164,0.934082,-4.183206,8.801527,29.82443
-0.3774414,0.5673828,0.6552734,2.320611,-7.282443,24.70992
-0.4291992,0.3618164,0.5400391,-12.61832,12.9542,1.320611
-0.5756836,0.40625,0.9072266,8.633588,25.22137,10.96947
-0.4155273,0.2719727,0.7734375,-55.47328,11.57252,32.03053
-0.4370117,0.2006836,0.6796875,-28,20.42748,43.39695
-0.6494141,0.4301758,0.894043,-14.57252,10.01527,44.70229
-0.4130859,0.4707031,0.6855469,-1.679389,18.94657,17.9771
-0.3959961,0.4282227,0.6586914,-19.15267,14.0687,7.320611
-0.5556641,0.4296875,0.9238281,-35.79389,11.9542,16.36641
-0.3764648,0.1943359,0.690918,-48.77863,18.34351,27.9771
-0.4897461,0.2138672,0.7373047,-25.21374,11.61832,32.74046
-0.612793,0.4272461,0.8955078,2.748092,-7.229008,14.47328
-0.4052734,0.3295898,0.6948242,3.839695,6.59542,1.755725
-0.527832,0.3354492,0.5869141,-16.90076,17.8855,9.832061
-0.5541992,0.4667969,0.9072266,-30.81679,32.06107,37.73283
-0.4150391,0.1875,0.6982422,-38.35115,8.656488,41.90076
-0.5517578,0.1865234,0.7592773,-6.755725,16.62595,35.0229
-0.4130859,0.3920898,0.9345703,1.10687,-7.854962,18.19847
-0.3671875,0.3056641,0.668457,-11.10687,3.824427,19.43511
-0.4541016,0.3276367,0.8232422,-13.16794,8.877863,7.198473
-0.4384766,0.3427734,0.8955078,-7.38168,7.374046,35.47328
-0.3867188,0.2192383,0.7011719,-21.38931,15.28244,37.83206
-0.5166016,0.2661133,0.7397461,-15.85496,22.65649,26.47328
-0.5063477,0.4018555,0.9926758,5.687023,4.08397,17.31298
-0.4194336,0.3886719,0.6274414,-9.870229,6.160306,16.15267
-0.4785156,0.3686523,0.6381836,-14.18321,4.694656,6.923664
-0.4716797,0.5791016,0.9975586,-35.61069,11.07634,8.167939
-0.3808594,0.1889648,0.7202148,-34.16031,20.0458,22.84733
-0.4482422,0.2006836,0.7143555,-24.86259,5.740458,30.80153
-0.574707,0.4194336,0.9545898,12.84733,-7.694656,17.20611
-0.3544922,0.4306641,0.7333984,-1.259542,5.717557,4.641222
-0.4169922,0.3237305,0.6411133,-19.51908,6.549618,6.984733
-0.5073242,0.4907227,0.8339844,-20.75573,13.41221,11.26718
-0.3549805,0.2714844,0.8510742,-39.10687,8.503817,21.25191
-0.4140625,0.2055664,0.6455078,-28.32825,17.27481,38.51145
-0.5136719,0.4482422,0.9912109,-8.198473,2.824427,31.05343
-0.3198242,0.480957,0.7788086,0.8625955,-20.20611,-8.549619
-0.3701172,0.3945313,0.5922852,-1.366412,-10.93893,-14.74046
-0.4487305,0.4467773,0.6274414,-2.503817,-19.80153,-19.64886
-0.4101563,0.4536133,0.9199219,-25.30534,-18.48092,-29.70229
-0.3076172,0.34375,0.8417969,-3.717557,0.832061,-20.61832
-0.4360352,0.2836914,0.6772461,-3.526718,-2.167939,-2.435114
-0.5336914,0.4003906,0.8266602,21.27481,11.35114,-9.61832
-0.4853516,0.4750977,0.628418,20.41985,-26.40458,-12.19847
-0.4873046,0.3974609,0.7290039,-7.938932,-4.38168,-17.87786
-0.4614258,0.3515625,0.9174805,-29.47328,7.656488,38.25191
-0.4282227,0.2900391,0.703125,-26.03053,10.9771,19.32061
-0.4023438,0.4887695,0.9648438,11.23664,14.74809,-6.526718
-0.375,0.4169922,0.6806641,-6.229008,-18.56489,-19.03053
-0.4873046,0.3925781,0.7124023,-6.793893,2.442748,-4.48855
-0.2817383,0.3017578,0.8696289,-26.21374,9.282443,30.87023
-0.4750977,0.2490234,0.6918945,-15.48855,7.519084,26.58015
-0.550293,0.4331055,0.7958984,5.496183,19.83206,11.41985
-0.4609375,0.3701172,0.7592773,-19.16031,11.29771,8.442748
-0.4311523,0.3833008,0.7719727,-30.22901,17.03817,49.30534
-0.4667969,0.3222656,0.8525391,-44.48092,27.91603,72.56489
-0.4067383,0.3496094,0.71875,-30.09924,23.41985,46.51145
-0.4462891,0.3852539,0.8100587,7.78626,29.70992,23.70229
-0.3095703,0.4584961,0.7167969,-23.25191,10.29008,11.98473
-0.434082,0.3881836,0.6743164,-32.42748,14.0458,22.07634
-0.4433593,0.4023438,0.8691406,-25.40458,25.35114,31.01527
-0.4155273,0.2314453,0.8579102,-38.32061,27.24427,53.48855
-0.4287109,0.2553711,0.8198242,-35.91603,25.12977,67.90839
-0.5063477,0.4047852,0.7392578,-8.236641,43.15267,42.31298
-0.4311523,0.4804688,0.7426758,-25.12977,29.79389,34.54962
-0.4433593,0.4614258,0.7207031,-36.54198,20.38168,38.72519
-0.5087891,0.4082031,0.9438477,-54.48855,12.20611,48.03817
-0.3720703,0.3046875,0.7749023,-24.48855,21.58779,41.0229
-0.4599609,0.3266602,0.78125,-9.320611,17.80916,26.45038
-0.4106445,0.3374023,0.7387695,-9.137405,-0.2213741,22.10687
-0.4365234,0.3930664,0.6860352,-17.19847,6.152672,19.87023
-0.4770508,0.3989258,0.9321289,-27.0687,11.51908,15.41221
-0.4311523,0.1967773,0.8144531,-35.68702,15.75572,38.91603
-0.472168,0.3027344,0.7548828,5.312977,12.24428,14.03817
-0.3535156,0.3999023,0.734375,12.48855,-10.38931,-5.229008
-0.3974609,0.4047852,0.6967773,-1.40458,-6.030534,-15.0458
-0.4770508,0.4208984,0.8984375,-20.54198,-6.206107,-7.641222
-0.4033203,0.2602539,0.8505859,-26.00763,14.33588,29.39695
-0.434082,0.2958984,0.8164063,-13.45038,14.82443,25.30534
-0.3876953,0.2758789,0.8955078,-23.22137,1.328244,35.05344
-0.3461914,0.3398438,0.7260742,-34.09924,22.71756,36.35878
-0.4135742,0.3730469,0.9130859,-31.0229,41.48855,73.90076
-0.2631836,0.2529297,0.9145508,-58.64122,30.40458,96.90076
-0.3046875,0.2182617,0.887207,-38.09924,35.85496,100.0611
-0.4199219,0.4492188,0.8056641,-7.51145,35.46565,46.76336
-0.2866211,0.387207,0.8876953,-36.65649,24.75573,52.72519
-0.4101563,0.394043,0.7338867,-37.19084,20.51908,52.76336
-0.3676758,0.3261719,1.049805,-27.43511,15.03053,40.69466
-0.2578125,0.2578125,0.8457031,-32.98473,24.60305,66.57252
-0.4179688,0.3154297,0.8603516,-24.12977,29.87786,53.47328
-0.3491211,0.4550781,0.8168945,-40.13741,25.35114,59.38931
-0.4086914,0.3925781,0.6787109,-33.94656,19.09924,53.98473
-0.4692383,0.472168,0.815918,-15.76336,33.38931,20.33588
-0.2753906,0.3334961,0.8823242,-27.89313,23.89313,27.51908
-0.375,0.3149414,0.8046875,5.251908,6.70229,16.73282
-0.4599609,0.5092773,0.815918,6.549618,-11.87023,-27.67175
-0.2260742,0.515625,0.746582,16.03817,3.022901,-4.580153
-0.3339844,0.5058594,0.6777344,-14.76336,3.824427,-0.9694656
-0.3925781,0.4794922,0.7075195,-22.14504,-8.801527,-3.053435
-0.3842773,0.328125,1.005371,-16.49618,-3.610687,-13.33588
-0.3442383,0.3583984,0.7695313,-9.923664,-0.2366412,5.679389
-0.3725586,0.3085938,0.8505859,-0.7175572,-13.13741,-5.38168
-0.3168945,0.375,0.8623047,21.45038,-3.549618,-22.40458
-0.3740234,0.527832,0.7915039,12.56489,-19.42748,-31.59542
-0.2929688,0.4609375,0.7475586,7.549618,-13.0687,-14.14504
-0.2944336,0.3896484,0.6000977,-4.145038,8.694656,-6.358778
-0.4912109,0.5678711,0.9111328,-3.40458,-8.755725,-33.09924
-0.2841797,0.4233398,0.7861328,-1.198473,-22.54962,-12.1374
-0.3066406,0.3374023,0.8056641,20.18321,-23.25954,-58.01527
-0.4189453,0.5263672,0.8583984,-4.473282,-10.80916,13.78626
-0.3081055,0.4853516,0.6821289,-0.389313,-3.328244,6.022901
-0.3330078,0.4628906,0.7265625,-12.96947,-6.900764,0.03816794
-0.2617188,0.4194336,0.6630859,-3.282443,-4.442748,-4.21374
-0.2592773,0.5019531,0.9560546,10.60305,-3.687023,-38.58015
-0.2890625,0.328125,0.7758789,-1.458015,-21.59542,-29.12977
-0.2495117,0.3144531,0.6787109,8.480916,-11.74046,-48.19084
-0.5527344,0.5039063,1.061523,-16.70229,-21.58779,-16.1145
-0.347168,0.4350586,0.6757813,8.396947,-4.977099,-15.45802
-0.2685547,0.3417969,0.6196289,-16.78626,-7.450382,-12.86259
-0.3149414,0.5458984,1.144531,1.48855,-12.83969,-15.37405
-0.3383789,0.3867188,0.8217773,-1.29771,-17.53435,-21.90076
-0.2163086,0.2841797,0.7163086,17.96183,-15.19847,-43.48855
-0.3920898,0.5209961,1.051758,15.74809,-1.89313,-47.47328
-0.2695313,0.5620117,0.8041992,23.0229,-1.755725,-6.793893
-0.2905273,0.4116211,0.6264648,-3.839695,-14.79389,-8.396947
-0.2714844,0.4399414,0.8344727,1.274809,2.022901,-22.40458
-0.3422852,0.2900391,1.129883,-0.5267176,-24.9084,-46.29008
-0.1762695,0.2236328,0.671875,22.76336,-15.74046,-45.70229
-0.3549805,0.4389648,1.054688,33.32824,-1.91603,-55.8855
-0.3134766,0.4599609,0.7490234,9.175572,-3.679389,0.2824428
-0.3085938,0.4375,0.6054688,-4.900764,-1.885496,2.854962
-0.3706055,0.5849609,1.066406,-3.320611,-18.20611,-38.35878
-0.3149414,0.3540039,0.8862305,0.870229,-22.74046,-37.29771
-0.1933594,0.2636719,0.6103516,31.9313,-18.12214,-53.55725
-0.3442383,0.4648438,1.055664,13.94656,-27.21374,-34.22901
-0.2387695,0.4785156,0.7353516,3.862595,-0.9389313,-22.15267
-0.2373047,0.2875977,0.5673828,-14.85496,-0.8473283,-2.412214
-0.2734375,0.5493164,1.149902,18.75573,5.557252,-36.67939
-0.2158203,0.300293,0.7045898,15.0687,-13.25954,-32.56488
-0.2133789,0.2304688,1.00293,46.19848,-5.152672,-71.63359
-0.4619141,0.4731445,0.8945313,-10.43511,-13.68702,-6.473282
-0.3056641,0.328125,0.5932617,-12.64886,0.389313,-2.122137
-0.3276367,0.3515625,0.7705078,-8.854961,-3.320611,5.954198
-0.362793,0.4453125,1.061523,6.992366,-27.09924,-17.22137
-0.2578125,0.3325195,0.7255859,5.725191,5.755725,-12.81679
-0.3979492,0.3745117,0.7983398,11.58779,14.30534,-23.77099
-0.3730469,0.5336914,0.8964844,-14.16031,-28.35878,24.48092
-0.3999023,0.3891602,0.7583008,-13.43511,-4.145038,-16.93893
-0.2631836,0.3198242,0.9291992,-15.77099,0.4580153,-0.7862596
-0.3759766,0.2050781,0.7509766,1.679389,-2.885496,-1.152672
-0.440918,0.4785156,0.9604492,6.389313,1.374046,-14.76336
-0.3320313,0.3842773,0.631836,-1.145038,16.81679,-14.44275
-0.4267578,0.4467773,1.005371,-49.0458,-0.5725191,31.84733
-0.315918,0.1894531,0.7348633,-26.01527,25.50382,45.12214
-0.4296875,0.4155273,0.9165039,16.10687,18.53435,7.694656
-0.2900391,0.4101563,0.7275391,1.274809,-8.969465,-8.343512
-0.4301758,0.4130859,0.8701172,-11.46565,12.07634,17.03817
-0.2954102,0.2856445,0.7724609,-19.78626,23.22901,23.67939
-0.4555664,0.3427734,0.8984375,19.55725,7.664122,15.48855
-0.362793,0.4770508,0.671875,-11.0229,-13.77099,-7.946565
-0.3662109,0.34375,0.8959961,-23.8855,-0.2366412,9.755725
-0.3017578,0.3154297,0.7451172,-32.78626,32.85496,45.56488
-0.4101563,0.2836914,0.8085938,-7.946565,28.18321,43.16031
-0.2714844,0.5209961,0.7661133,-12.68702,-3.923664,7.183206
-0.3452148,0.3134766,0.7255859,-21.77862,3.450382,21.68702
-0.1606445,0.2919922,0.9628906,-35.62595,26.96947,53.53435
-0.3217773,0.2509766,0.7211914,-18.45802,20.16794,33.16794
-0.4589844,0.4018555,1.094727,21.35878,-2.412214,2.167939
-0.3505859,0.3613281,0.6264648,-4.320611,10.87786,0.4885496
-0.3710938,0.4545898,0.8354492,-21.43511,4.305344,1.900763
-0.230957,0.3554688,0.8740234,-29.0687,-9.335877,-4.648855
-0.3803711,0.2553711,0.7773438,-14.99237,7.40458,3.931298
-0.5576172,0.5053711,0.8520508,20.58015,-14.49618,-28.85496
-0.3232422,0.2792969,0.7304688,-2.030534,7.664122,-6.717557
-0.4057617,0.4438477,0.8647461,-42.41985,14.64122,-3.89313
-0.3032227,0.2851563,0.7089844,-6.633588,10.42748,6.045802
-0.4658203,0.3081055,0.8178711,15.05344,11.31298,-2.916031
-0.3647461,0.2734375,0.7739258,16.0229,-18.84733,-24.43511
-0.4038086,0.4599609,0.8579102,-21.54962,-6.10687,-16.42748
-0.3271484,0.2851563,0.7836914,14.01527,7.290076,-19.73282
-0.3818359,0.3041992,0.8579102,15.26718,-17.0458,-27.98473
-0.3759766,0.5776367,0.6953125,46.07634,-29.9542,-61.99237
-0.3647461,0.4140625,0.6801758,7.847328,-24.39695,-53.32061
-0.1879883,0.3828125,0.8774414,18.54198,-11.69466,-27.66412
-0.3388672,0.3237305,0.7924805,9.40458,-10.71756,-40.67939
-0.4511719,0.2709961,0.9165039,31.8855,-10.45802,-33.57252
-0.3442383,0.4140625,0.7006836,23.03817,9.183207,-11.94656
-0.4589844,0.3339844,0.7646484,-24.65649,13.68702,35.38168
-0.1459961,0.3808594,0.8510742,-45.03053,5.259542,34.39695
-0.34375,0.2192383,0.8520508,-38.86259,19.54198,25.1145
-0.3793945,0.2670898,0.9057617,-22.9771,14.80916,13.9084
-0.2978516,0.2890625,0.8476563,-14.03053,-4.389313,-10.45038
-0.4086914,0.3393555,0.8085938,-1.21374,8.015267,-25.84733
-0.1816406,0.1870117,0.8808594,4.984733,-28.50382,-20.55725
-0.2827148,0.1816406,0.9414063,43.44275,-16.64886,-41.67939
-0.3710938,0.3325195,0.8173828,55.8855,-17.37405,-56.25954
-0.4194336,0.456543,0.7441406,8.40458,-17.48092,-36.51908
-0.4418945,0.3544922,0.743164,-12.19847,-8.290076,-8.755725
-0.3745117,0.253418,1.059082,-6.961832,9.557252,20.1145
-0.2548828,0.2114258,0.9169922,-1.160305,13.16031,7.755725
-0.3583984,0.2011719,0.8037109,0.961832,-12.36641,-11.24428
-0.456543,0.25,0.9741211,22.94657,-23.70229,-31.18321
-0.2880859,0.2958984,0.7753907,18.35114,-15,-33.83969
-0.3486328,0.347168,1.047852,-16.36641,-8.343512,-24.25191
-0.2900391,0.1665039,0.8173828,-0.5267176,4.145038,8.312977
-0.2749023,0.2836914,0.9550781,27.54962,13.84733,-10.77099
-0.3012695,0.4023438,0.6938477,6.427481,-14.87023,-34.76336
-0.3486328,0.2983398,0.7446289,-9.832061,-7.328244,-16.54198
-0.3061523,0.1821289,1.016113,-0.6335878,5.312977,14.10687
-0.3325195,0.2485352,0.7993164,0.0610687,-3.923664,-15.1145
-0.3422852,0.4379883,0.8579102,17.99237,-7.793893,-56.27481
-0.2460938,0.340332,0.8408203,30.84733,-23.0687,-80.85497
-0.2661133,0.2900391,0.8735352,-2.343511,-22.12977,-74.28244
-0.1791992,0.3188477,0.9155273,19.35114,-21.48855,-71.86259
-0.2412109,0.2055664,0.8261719,8.389313,-23.74046,-81.14503
-0.1879883,0.2788086,0.9868164,44.0687,-14.59542,-90.92367
-0.1435547,0.3867188,0.8564453,30.99237,-29.25954,-89.63359
-0.1928711,0.3310547,0.8295898,24.61069,-28.86259,-91.32825
-0.2324219,0.3237305,0.9423828,1.053435,-15.72519,-36.77099
-0.3310547,0.2055664,0.9082031,-11.53435,-9.030535,-27.03817
-0.3066406,0.2612305,0.9130859,20.41985,0.01526718,-36.06107
-0.1640625,0.2524414,0.8662109,7.145038,-21.25191,-16.51908
-0.328125,0.2182617,0.7719727,-24.48092,11.72519,-0.8091603
-0.3457031,0.2299805,1.038574,-36.44275,16.91603,39.80916
-0.2275391,0.1264648,0.8510742,-31.22137,16.83206,67.60305
-0.3798828,0.2119141,0.8349609,-2.374046,8.748092,21.55725
-0.2280273,0.309082,0.9208984,-7.587786,-15.22137,-16.52672
-0.3330078,0.2519531,0.7714844,-6.465649,2.725191,10.45038
-0.2397461,0.378418,0.949707,-12.96947,18.29008,32.0687
-0.3134766,0.2314453,0.8466797,-27.92366,10.29771,37.64122
-0.3115234,0.2612305,0.8959961,-3.824427,16.0229,25.64886
-0.2963867,0.4487305,0.8378906,0.5954198,-3,18.50382
-0.2856445,0.28125,0.7705078,-18.65649,10.37405,8.076336
-0.4619141,0.3203125,0.9980469,-35.72519,-2.259542,14.87786
-0.3041992,0.1757813,0.7426758,-9.076336,5.259542,14.44275
-0.2895508,0.2421875,0.9951172,15.73282,4.824428,-2.022901
-0.3583984,0.3271484,0.8124999,-17.64122,-4.80916,-14.09924
-0.3461914,0.1606445,0.7900391,-20.63359,-1.129771,7.793893
-0.09326172,0.175293,0.9443359,-9.320611,10,40.87023
-0.2402344,0.1489258,0.840332,-17.83969,10.78626,11.29008
-0.3876953,0.2553711,0.9638672,17.87023,-12.05344,-36.90076
-0.2290039,0.1723633,0.8911133,4.312977,-16.74809,-5.251908
-0.1679688,0.2915039,1.03125,-30.29771,-4.038168,13.37405
-0.1362305,0.1791992,0.9462891,11.67939,14.54962,4.923664
-0.2749023,0.140625,0.8481445,1.664122,0.8931297,7.08397
-0.1474609,0.3481445,0.8789063,43.27481,9.541985,26.25954
-0.28125,0.2739258,0.8051758,-12.77863,3.175573,23.51145
-0.2705078,0.2128906,1.04541,-53.62595,14.23664,63.46565
-0.1640625,0.128418,0.894043,-22.15267,20.63359,73.14503
-0.234375,0.3251953,0.9438477,1.740458,21.91603,38.12977
-0.2036133,0.2280273,0.9047852,-11.73282,16.74046,34.77863
-0.1967773,0.2895508,0.956543,-54.75573,-16.46565,40.25954
-0.152832,0.1479492,0.9111328,-30.93893,18.33588,44.77863
-0.2431641,0.08691406,0.8662109,-3.938931,4.70229,16.47328
-0.3774414,0.184082,0.9555664,15.89313,4.198473,3.267176
-0.234375,0.2729492,0.8100587,-2.877863,-4.900764,-9.38168
-0.2299805,0.2104492,1.080078,-19.0229,12.89313,8.694656
-0.2573242,0.1401367,0.7983398,-4.793893,9.297709,21.25954
-0.3798828,0.355957,0.8720703,15.41221,4.954198,-9.748092
-0.2373047,0.324707,0.8671875,-4.435114,-16.9084,-13.87786
-0.2460938,0.3510742,0.9008789,-11.35878,4.183206,-16.22137
-0.09521483,0.1611328,0.9814453,2.29771,-1.992366,-26.1145
-0.2265625,0.1704102,0.8857422,12.87786,-1.427481,-16.25954
-0.3774414,0.293457,1.055176,29.05343,-16.58015,-20.47328
-0.2182617,0.3291016,0.7895508,15.24428,-3.145038,-23.60305
-0.2963867,0.2973633,0.7421875,-26.8855,-15.21374,0.007633588
-0.2558594,0.3564453,1.113281,-2.740458,9.450381,-32.29008
-0.1201172,0.3388672,0.9262695,19.85496,-7.48855,-35.71756
-0.2456055,0.2753906,0.8364258,17.31298,-18.61832,-37.8855
-0.2802734,0.3125,1.006836,17.9771,-17.91603,-37.31297
-0.1542969,0.3139648,0.730957,25.29008,-18.41221,-65.67175
-0.1982422,0.340332,1.036133,-19.35114,5.251908,-12.07634
-0.1430664,0.2231445,0.8666992,-1.030534,9.083969,-8.114504
-0.2412109,0.2368164,0.8691406,16.86259,2.519084,-16.61832
-0.2353516,0.3095703,0.8632813,11.00763,-11.29771,-20.40458
-0.2714844,0.2001953,0.793457,-17.77862,2.381679,-2.442748
-0.3666992,0.2949219,0.940918,-23.22901,8.755725,33.98473
-0.1557617,0.1821289,0.8901367,-3.152672,10.32824,53.65649
-0.2949219,0.1386719,0.9086914,-10.37405,8.763359,23.8855
-0.1904297,0.2446289,0.8662109,-13.91603,9.206107,35.24427
-0.2524414,0.1879883,0.8393555,-29.92366,18.47328,61.03817
-0.1245117,0.1054688,1.048828,-24.03053,10.41221,80.83206
-0.1113281,-0.01611328,0.996582,-38.43512,16.92366,108.8931
-0.2211914,0.1342773,0.9775391,9.251908,28.39695,45.26717
-0.1542969,0.2700195,0.8051758,-6.328244,18.30534,22.74046
-0.2456055,0.1894531,0.8232422,-29.51908,-0.2519084,30.35114
-0.2358398,0.1401367,1.098633,-25.46565,-0.8854962,28.29771
-0.1665039,0.006835938,0.881836,-14.73282,14.9542,48.22138
-0.2631836,0.1386719,0.9667969,11.60305,12.34351,4.70229
-0.1420898,0.2685547,0.8525391,-15.71756,-15.03817,-13.15267
-0.2558594,0.1865234,0.8554688,-22.41985,-10.28244,-11.53435
-0.08251953,0.2138672,0.940918,-15.74809,3.015267,38.8168
-0.175293,0.1098633,0.871582,4.465649,12.0687,7.770992
-0.3203125,0.3208008,1.016113,12.27481,-10.15267,-20.9313
-0.171875,0.1401367,0.7905273,12.46565,3.358779,-26.9542
-0.2265625,0.2592773,1.059082,-27,0.1221374,16.10687
-0.1542969,0.1923828,0.824707,-1.366412,30.09924,19.19084
-0.2412109,0.1791992,0.878418,5.824428,-12.81679,-12.12214
-0.1191406,0.2651367,1.219727,-0.1984733,-29.13741,-16.03053
-0.206543,0.1503906,0.7436523,-4.076336,1.679389,-6.671756
-0.2958984,0.253418,1.141113,-26.84733,9.335877,8.709924
-0.1411133,0.2016602,0.7783203,5.51145,27.29008,-0.6717557
-0.3110352,0.1899414,0.815918,35.17557,-7.091603,-45.8855
-0.1757813,0.3671875,0.8603516,35.82443,-37.84733,-59.16031
-0.2041016,0.2529297,0.7666016,3.625954,0.5267176,-53.96947
-0.1181641,0.1342773,1.206055,-25.36641,8.885496,25.50382
-0.1347656,0.1704102,0.7426758,4.793893,16.45038,-10.38168
-0.2431641,0.2978516,1.009277,19.07634,-30.52672,-27.30534
-0.006835938,0.2495117,0.894043,-5.679389,-4.320611,-39.44275
-0.2705078,0.08447266,0.9375001,-28.64122,-2.977099,-3.305344
-0.1015625,0.1865234,1.000488,-38.54962,4.625954,51.58779
-0.1689453,0.1362305,0.8388672,-3.244275,13.1145,-2.061069
-0.3530273,0.3452148,1.016113,11.05344,-14.9084,-33.16794
-0.1967773,0.2041016,0.8120117,14.53435,-23.08397,-49.57252
-0.2900391,0.1821289,0.9941406,-19.64886,7.358778,-19.9084
-0.1962891,0.07617188,0.8754883,-4.961832,-0.2290076,22.19084
-0.2509766,0.2041016,0.868164,19.39695,14.66412,3.206107
-0.2089844,0.2749023,1.023438,-18.08397,-22.19847,-16.83969
-0.222168,0.3276367,0.7895508,5.167939,-11.27481,-17.43511
-0.2211914,0.2993164,1.016602,-16.9771,13.15267,21.75573
-0.1977539,0.07275391,0.8701172,-15.77863,5.328244,30.9771
-0.1738281,0.28125,0.8735352,10.42748,13.15267,-32.38931
-0.09765625,0.434082,0.9140625,28.05343,-34.17557,-80.59542
-0.09375,0.402832,0.8847656,32.16794,-26.0687,-104.2214
-0.1782227,0.3222656,0.8217773,18.84733,-41.48092,-99.09924
-0.1494141,0.2724609,0.9770508,4.503817,-20.25954,-43.14504
-0.2167969,0.1577148,0.8457031,-4.236641,-15.28244,-70.66412
-0.1953125,0.1889648,1.003906,18.03053,-20.35878,-64.25191
-0.1713867,0.1132813,0.9951172,22.05344,-23.52672,-79.16794
-0.2060547,0.2148438,0.7744141,-0.1679389,-8.893129,-64.0458
-0.2700195,0.2626953,1.062988,-12.51145,0.1603054,-10.87786
-0.1040039,0.1289063,0.9233398,7.564886,9.580153,6.923664
-0.2324219,0.1489258,0.8916016,9.824428,1,-3.717557
-0.2480469,0.1728516,0.9619141,13,-10.73282,-19.80916
-0.1992188,0.1616211,0.8012695,-1.343511,0.5496183,9.59542
-0.1542969,0.265625,0.9692383,-13.78626,18.9771,77.69466
-0.09423828,0.1884766,0.9589844,-7.61832,15.12977,34.65649
-0.2597656,0.2470703,0.9643555,11.36641,5.847328,-17.75573
-0.1381836,0.203125,0.8344727,-2.473282,3.267176,-14.41985
-0.1772461,0.2119141,0.8657228,-25.86259,1.351145,41.58015
-0.2480469,0.2797852,1.07666,-19.19084,5.854962,54.03817
-0.07324219,0.1342773,0.9990234,5.717557,9.946565,25.69466
-0.1982422,0.2211914,0.8867187,-3.40458,-6.854962,-24.8855
-0.2382813,0.2929688,1.060547,23.84733,-3.503817,-69.1832
-0.1899414,0.2631836,0.7226563,1.832061,-14.29771,-50.21374
-0.1958008,0.2788086,1.054199,-8.274809,1.473282,-4.557252
-0.1533203,0.02197266,0.9082031,-18.39695,-7.572519,21.87023
-0.2119141,0.08593751,0.9199219,-5.419847,15.89313,42.29008
-0.09765625,0.2138672,0.9492188,-5.08397,5.732825,58.22901
-0.1899414,0.234375,0.8007813,-37.74046,4.61832,59.31298
-0.1362305,0.07275391,0.9550781,-38.74809,19.35114,73.25191
-0.1845703,0.1435547,0.8793945,-9.068703,1.145038,15.80153
-0.2143555,0.2202148,0.9780273,11.03817,9.938931,-23.03053
-0.1796875,0.2475586,0.8710938,17.30534,-26.90076,-61.61832
-0.2768555,0.1757813,0.8198242,-15.0916,-16.92366,-52.09924
-0.1679688,0.1425781,1.110352,-0.4122138,-9.641221,-9.335877
-0.1328125,0.1020508,0.8408203,1.091603,-2.70229,-7.045802
-0.2451172,0.2182617,1.046387,-7.282443,-4.832061,-28.0458
-0.1079102,0.1547852,0.9418945,5.732825,2.114504,-51.67176
-0.1230469,0.2290039,0.9902344,-8.106871,2.282443,-41.1832
-0.09960938,0.1791992,0.934082,21.27481,-5.687023,-86.60305
-0.04248047,0.2890625,0.9042969,51.35115,-26.72519,-141.374
-0.109375,0.2514648,0.9008789,29.55725,-45.45038,-137.8855
-0.1342773,0.2426758,0.9238281,-1.335878,-9.564885,-78.62595
-0.05664063,0.1137695,0.9951172,2.145038,-2.083969,-33
-0.1411133,0.1420898,0.8666992,4.946565,-3.274809,-56.1832
-0.1767578,0.05566406,0.9545898,7.236641,-9.389313,-38.40458
-0.1679688,0.01953125,0.9902344,-2.603053,0.4580153,-35.41985
-0.1503906,0.1645508,0.8388672,5.450382,13.25191,4.687023
-0.2055664,0.2324219,1.030273,-18.26718,6.053435,4.152672
-0.1523438,0.1010742,0.8769531,-5.450382,-1.770992,27.24427
-0.1928711,0.1616211,0.9306641,20.70992,10.36641,-8.343512
-0.2143555,0.1948242,0.9545898,3.870229,-15.10687,-38.16031
-0.2294922,0.1801758,0.8046875,22.46565,6.946565,-25.68702
-0.2368164,0.1870117,1,-27.67175,11.41221,-8.045801
-0.1933594,0.04638672,0.8984375,-6.70229,-1.580153,-4.671756
-0.2314453,0.09423828,0.9150391,8.091603,-10.27481,-22.53435
-0.1884766,0.1259766,1.023438,23.59542,-20.86259,-27.92366
-0.1899414,0.1889648,0.8461914,15.65649,-13.00763,-33.17557
-0.2568359,0.215332,0.9467773,-10.89313,-14.93893,-26.70229
-0.1479492,0.1679688,0.9238281,-4.175572,3.061069,-14.14504
-0.1894531,0.08105469,0.8569336,0.4198473,-1.068702,-5.564886
-0.2470703,0.2265625,1.009766,10.39695,-7.251908,-41.24427
-0.1577148,0.2304688,0.8105469,4.580153,-3.351145,-39.57252
-0.2104492,0.2128906,0.9628906,-10.43511,11.26718,-16.51908
-0.246582,0.03125,1.035156,6.152672,11.77863,-15.93893
-0.04394531,0.1787109,0.9560546,2.21374,23.20611,-44.77099
-0.07519531,0.2626953,0.8300781,3.648855,-9.38168,-13.24428
-0.3486328,0.06640625,0.9902344,46.38168,-14.35878,-19.45802
-0.456543,0.1518555,0.921875,-11.66412,3.450382,-8.564885
-0.3583984,0.15625,0.8408203,-5.480916,10.22137,17.35878
-0.1899414,0.1894531,0.868164,-2.137405,-4.496183,-4.015267
-0.1220703,0.300293,0.8530273,2.48855,-0.480916,-8.320611
-0.1342773,0.2089844,0.9882813,13.60305,-13.91603,-36.8168
-0.1552734,0.2192383,0.9814453,18.25191,-7.900764,-52.74046
-0.1367188,0.1166992,0.8862305,27.01527,-33.52672,-79.15267
-0.2822266,0.2197266,0.9721681,-7.366412,-44.1832,-91.7252
-0.1733398,0.08398438,0.9677734,6.977099,-6.78626,-78.80916
-0.1933594,0.1240234,0.9057617,18.52672,6.839694,-21.42748
-0.1821289,0.1982422,0.8564453,-4.374046,2.137405,-0.9847328
-0.09326172,0.1977539,0.9633789,-8.305344,11.94656,51.29008
-0.1474609,0.112793,0.7895508,-32.58779,4.160306,62.87786
-0.2285156,0.1132813,0.9726563,2.854962,9.229008,6.091603
-0.359375,0.3012695,0.9697266,31.50382,12.30534,-38.60305
-0.1982422,0.2094727,0.777832,0.3206107,-17.61069,-36.82443
-0.2392578,0.1806641,0.96875,-25.83969,-5.641222,-12.81679
-0.07519531,0.09667969,0.8969727,-17.98473,9.580153,10.09924
-0.2568359,0.03515625,0.8383789,24.03053,6.137404,8.541985
-0.4472656,0.1665039,1.097168,2.465649,-4.175572,-32.98473
-0.3017578,0.1196289,0.7636719,-5.38168,-8.885496,-18.45802
-0.3046875,0.1645508,1.010742,-24.34351,16.36641,-5.442748
-0.1635742,0.07861328,0.8862305,0.7633588,15.38168,2.954198
-0.2973633,0.1328125,0.9267578,27.09924,-6.580153,1.419847
-0.07617188,0.253418,0.840332,33.0458,-14.66412,-34.66412
-0.2958984,0.1132813,0.8139648,-20.80916,-8.488549,-34.22137
-0.1459961,0.02636719,1.081055,0.3053435,-5.198473,18.09924
-0.2104492,0.03515625,0.8203125,-9.137405,-0.8167939,-6.435114
-0.3144531,0.1777344,1.039551,-1.335878,-11.07634,-25.06107
-0.1586914,0.1054688,0.8388672,-3,-4.137404,-12.59542
-0.15625,0.1108398,1.073242,-7.900764,8.725191,16.34351
-0.1601563,-0.02490234,0.8632813,-16.22901,3.396947,48.19847
-0.2099609,0.001464844,0.9887695,1.152672,12.71756,32.73283
-0.1782227,0.1044922,0.9316406,-3.503817,-4.396946,11.20611
-0.2216797,0.08935547,0.8120117,-22.29771,-11.16031,-0.5267176
-0.2490234,0.1049805,1.147461,-6.175572,-17.94656,32.24427
-0.1035156,0.006347656,0.8642578,1.251908,11.51908,32.13741
-0.144043,0.1240234,0.9970703,15.40458,21.58015,6.022901
-0.1552734,0.004882812,0.8520508,-17.58779,12.75572,39.00763
-0.1645508,0.04150391,0.8789063,-26.45038,10.30534,98.70992
-0.1176758,-0.02978516,0.9633789,-59.45802,15.01527,134.771
-0.1586914,0.02734375,0.9238281,-35.38168,11.58015,116.3359
-0.2133789,0.06689453,0.9614258,-15.08397,6.183206,62.07634
-0.1367188,0.1611328,0.9023438,-17.0458,-0.9312977,39.13741
-0.2485352,0.1279297,0.7890625,-12.45038,3.442748,40.57252
-0.1767578,0.1977539,1.032227,-19.12977,2.648855,34.94656
-0.07373047,0.09716797,0.8056641,-19.94657,16.67939,24.1374
-0.2338867,0.1005859,0.8393555,12.80916,25.92366,23.29008
-0.378418,0.265625,1.003418,5.351145,-8.488549,1.167939
-0.2055664,0.140625,0.8129883,-17.9084,-2,-12.73282
-0.2646484,0.1259766,0.8774414,-15.31298,-1.312977,4.458015
-0.2119141,-0.008789062,1.077148,-27.56489,-3.251908,39.10687
-0.2275391,0.03662109,0.7788086,8.328244,12.22901,3.374046
-0.3476563,0.1708984,0.9755859,29.48092,-18.87786,-15.79389
-0.1411133,0.2597656,0.8105469,-3.320611,-7.496183,-30.99237
-0.2709961,0.1279297,0.8144531,-35.55725,-8.931297,-2.900763
-0.265625,0.1445313,1.080078,-35.16794,-6.473282,13.91603
-0.1689453,0.08544922,0.8701172,11.55725,9.152672,8.419847
-0.2084961,0.159668,0.934082,27.35114,4.198473,-24.9084
-0.1767578,0.2358398,0.8789063,12.59542,-22.32825,-19.94657
-0.2695313,0.1459961,0.8388672,-24.58779,2.19084,-20.74809
-0.2583008,0.08056641,1.056152,-1.160305,-9.450381,17.96183
-0.1616211,0.07861328,0.8085938,-10.17557,0.06870229,8.977099
-0.2636719,0.2587891,1.017578,18.39695,12.73282,-34.77099
-0.1782227,0.1948242,0.8183594,-0.03053435,-15.89313,-38.36641
-0.2807617,0.1108398,0.890625,-14.64122,6.740458,-46.63359
-0.06152344,0.03173828,0.9721681,-6.114504,-10.25954,21.62595
-0.293457,-0.1538086,0.8447266,-28.35878,-15.96947,6.045802
-0.3271484,0.0390625,1.03418,31.30534,-6.992366,-13.45038
-0.2094727,0.1611328,0.765625,13.39695,4.625954,-15.57252
-0.2592773,0.1298828,0.9794922,3.778626,21.40458,-15.94656
-0.1474609,0.1171875,0.9194336,20.30534,4.717557,12.73282
-0.3300781,0.1220703,0.8173828,3.335878,2.992366,-3.587786
-0.2202148,0.1508789,0.956543,-13.13741,-25.98473,-21.39695
-0.2260742,0.1318359,0.8413086,-18.9084,-0.4427481,-10.50382
-0.3046875,0.1972656,1.054688,-9.816793,9.862596,30.33588
-0.1279297,0.006347656,0.890625,0.04580153,11.45038,44.41221
-0.3188477,0.08203125,1.007324,16.47328,19.41221,14.80153
-0.2290039,0.2329102,0.8007813,-0.8473283,21.18321,14.80153
-0.3066406,0.1196289,0.7744141,-33.58779,-3.282443,39.8855
-0.2490234,0.1469727,0.9970703,-50,6.137404,95.41222
-0.07763672,-0.078125,1.040527,-58.54962,-0.6030535,98.67939
-0.1943359,-0.1464844,0.9794922,-33.35115,-0.480916,104.8702
-0.2192383,0.02490234,0.9956055,0.1526718,11.12214,72.03053
-0.2265625,0.1640625,0.8657228,-21.58015,6.366412,33.12214
-0.3095703,0.1806641,0.7978516,-22.25191,8.961832,52.50382
-0.2539063,0.2407227,1.084473,-34.69466,0.9465649,29.29771
-0.1552734,-0.02734375,0.8764648,-14.83206,15.90076,58.84732
-0.3041992,0.1162109,0.8803711,7.229008,-0.870229,24.16794
-0.1269531,0.1357422,0.921875,5.534351,-20.9542,-15.32061
-0.3046875,0.1567383,0.7768555,-11.68702,3.305344,-5.259542
-0.3701172,0.1118164,1.024902,-17.53435,-7.862596,19.63359
-0.2441406,0.1049805,0.7807617,-7.496183,15.9542,33.74046
-0.2553711,0.2119141,1.013672,12.74809,-11.61832,-8.519084
-0.1777344,0.1743164,0.8129883,-16.85496,-7.824428,-14.25191
-0.2905273,0.1479492,0.8852539,-17.98473,-1.442748,1.137405
-0.1816406,0.02001953,1.009766,-27.37405,-1.618321,49.74046
-0.2646484,0.05712891,0.8212891,-11.16031,4.778626,33.72519
-0.3325195,0.3066406,1.01709,7.641222,9.068703,-8.083969
-0.2167969,0.1220703,0.8383789,-0.7480916,2.435114,-12.58015
-0.2734375,0.1191406,0.9726563,-12.70229,4.496183,17.51145
-0.1855469,0.01074219,0.9121094,-15.90076,-2.152672,36.0916
-0.199707,0.07568359,0.9204102,-0.09923664,9.664123,14.61069
-0.1865234,0.2006836,0.9082031,18.16794,-16.44275,-5.061068
-0.2905273,0.1445313,0.7822266,-6.580153,-5.099236,-37.35115
-0.2558594,0.08349609,1.117188,-17.15267,-1.465649,-0.0610687
-0.1508789,0.09375,0.8808594,-2.175573,9.610687,33.41221
-0.2861328,0.1791992,0.9438477,10.51145,9.908397,-4.290076
-0.1958008,0.128418,0.8535156,-2.717557,-11.19084,-35.42748
-0.2475586,0.140625,0.9731445,5.984733,4.40458,-0.1068702
-0.1098633,0.01513672,0.9003907,-3.496183,-4.755725,15.05344
-0.1621094,0.07177734,0.8886719,2.709924,13.0229,16.83969
-0.3369141,0.2783203,0.9746093,15.67939,3.610687,-30.83206
-0.2045898,0.1054688,0.8046875,8.251908,-1.366412,-30.49618
-0.2509766,0.07080078,0.9609375,-19.70992,-1.740458,14.12977
-0.1210938,0.05761719,0.8852539,-14.49618,8.435115,38.58015
-0.2158203,0.07714844,0.8295898,-6.992366,5.778626,17.70229
-0.2744141,0.08642578,1.156738,-0.519084,-4.343512,-26.03053
-0.2270508,0.1113281,0.7460938,-3.679389,-5.251908,-15.96947
-0.1938477,0.1508789,1.066895,-17.8855,-4.656488,11.32061
-0.1938477,0.004882812,0.9375001,-23.71756,2.198473,45.61069
-0.1689453,0.03222656,0.9140625,-12.62595,8.145039,35.64885
-0.2490234,0.006835938,1.060059,-0.4961833,-0.3053435,8.740458
-0.1889648,0.09765625,0.8027344,-6.625954,9.236641,23.25954
-0.1533203,0.0703125,1.067871,-10.45802,11.81679,81.87786
-0.01904297,-0.08349609,1.005371,-37.60305,-1.954198,109.6489
-0.07617188,-0.03027344,0.9960938,-11.59542,8.687023,96.83969
-0.1123047,0.08398438,0.9526367,9.664123,23.92366,59.08397
-0.1650391,0.1611328,0.8867187,-8.999999,13.85496,78.12214
-0.2026367,0.1694336,0.8823242,-12.19847,4.984733,42.29771
-0.1884766,0.07958984,1.005859,-29.9771,9.59542,26.59542
-0.1362305,0.1035156,0.9794922,-14.86259,11.00763,65.41222
-0.125,0.1166992,0.8623047,10.38931,17.54198,19.48855
-0.1083984,0.1928711,0.8500977,9.633588,-29.34351,-12.18321
-0.2338867,0.2255859,0.7998047,-4.305344,0.8625955,-25.98473
-0.3339844,0.1865234,1.049805,-20.41222,9.519084,3.374046
-0.1958008,0.05078125,0.862793,-10.24428,3.977099,31.87786
-0.3134766,0.09716797,0.8740234,2.374046,7.984733,11.07634
-0.05175781,0.222168,0.8286134,9.290076,-9.389313,-28.32825
-0.2285156,0.1254883,0.8339844,-7.480916,-10.67176,-16.19084
-0.2392578,0.0703125,1.105957,-13.91603,-9.297709,43.86259
-0.2485352,0.1523438,0.7783203,-11.52672,4.068702,26.20611
-0.2319336,0.25,1.064941,16.34351,6.335878,-10.53435
-0.1235352,0.2241211,0.815918,1.641221,-6.351145,-42.69466
-0.2192383,0.03662109,0.8657228,-29.74809,-14.42748,-11.19847
-0.046875,0.06689453,0.8745117,-0.5038168,-9.847328,40.42748
-0.1655273,0.05761719,0.8544922,-1.290076,12.18321,19.22901
-0.2983398,0.125,1.100586,-8.961832,-6.343512,-25.41985
-0.1855469,0.109375,0.7744141,-13.93893,0.5496183,-17.18321
-0.2568359,0.1137695,1.098633,-16.82443,1.541985,-2.076336
-0.1689453,0.09326172,0.8925781,22.15267,25.29008,16.38168
-0.203125,0.1010742,0.887207,4.778626,2.145038,-25.31298
-0.08300781,0.2822266,0.831543,23.74046,-11.73282,-50.67939
-0.2456055,0.1538086,0.7983398,-12.84733,-14.54198,-34.54962
-0.2763672,0.05175781,1.147461,-17.37405,2.641221,-5.274809
-0.206543,0.09667969,0.7685547,-10.77863,12.77099,6.870229
-0.2563477,0.2758789,1.018555,8.145039,-7.78626,-29.24427
-0.1508789,0.08300781,0.8930664,-16.9542,1.030534,-44.03817
-0.2089844,0.07470703,0.8603516,-4.954198,6.328244,-13.62595
-0.1108398,0.09863281,0.921875,-2.236641,-1.229008,7.38168
-0.2197266,0.07324219,0.7685547,3.931298,0.08396947,-5.801527
-0.2016602,0.1010742,1.119141,-12.81679,-5.442748,-28.31298
-0.215332,0.1206055,0.7807617,-3.167939,-2.198473,-14.22137
-0.2680664,0.1518555,1.001465,-10.94656,3.053435,1.656489
-0.1635742,0.01123047,0.8671875,-21.12214,8.877863,-1.740458
-0.203125,0.0234375,0.8857422,3.534351,18.16794,-20.74809
-0.1123047,0.09570313,1.038086,25.27481,-4.053435,-30.0687
-0.2514648,0.1191406,0.7666016,-0.9694656,-13.9313,-37.47328
-0.2841797,0.1225586,1.039551,-8.061069,8.526717,-47.72519
-0.1757813,-0.02246094,0.9536134,25.48092,13.25954,-49.96947
-0.2412109,-0.01708984,0.9331055,22.9771,-19.39695,-79.80916
-0.06689453,0.1245117,0.9443359,36.54962,-5.21374,-84.50381
-0.2822266,0.1538086,0.8305664,-7.954198,-8.183207,-90.45038
-0.3017578,0.03076172,1.035645,-36.74809,-10.44275,-46.01527
-0.1533203,-0.09960938,0.8706055,15.35114,14.1374,-23.50382
-0.1552734,-0.02294922,0.9995117,31.33588,23.18321,-35.70992
-0.2119141,0.078125,0.8442383,-14.94656,-14.58015,-41.42748
-0.2236328,0.03515625,0.918457,-21.82443,-0.6412214,-39.15267
-0.1020508,-0.000488281,0.9863281,-6.274809,2.832061,-15.10687
-0.1538086,-0.05322266,0.8129883,16.39695,0.5954198,-41.58779
-0.222168,0.03759766,1.059082,23.39695,9.564885,-48.45802
-0.08984375,0.2421875,0.7919922,43.19084,22.47328,-68.38168
-0.1933594,0.06933594,0.8544922,-0.4122138,-14.98473,-29.43511
-0.3032227,-0.03564453,1.070313,-22.72519,-15.19084,1.908397
-0.2060547,0.04296875,0.8129883,28.26718,13.14504,-4.938932
-0.2124023,-0.008789062,0.9560546,18.73282,-4.923664,-20.01527
0.03466797,0.08642578,1.019043,1.610687,1.206107,9.694656
-0.2495117,0.1157227,0.7973633,-14.70992,3.78626,0.351145
-0.2875977,0.05419922,1.015625,-14.16031,-15.45038,25.30534
-0.01220703,-0.1494141,0.9858398,-13.30534,5.267175,69.10688
-0.2026367,-0.01464844,0.8740234,-18.25191,3.824427,63.61069
-0.3227539,0.1381836,1.132324,19.52672,12.1145,26.80153
-0.1704102,0.1323242,0.7871094,-9.412213,11.1145,24.62595
-0.1606445,0.04638672,0.9482422,-30.29008,-4.328244,25.09924
-0.01513672,0.05712891,1.097168,-19.14504,-17.81679,64.83206
-0.1762695,-0.0078125,0.8027344,-13.72519,10.0229,35.16031
-0.2895508,0.109375,0.9663086,5.557252,19.60305,-5.40458
-0.1552734,0.06835938,0.8662109,-27.06107,-9.885496,-0.351145
-0.2324219,0.02636719,0.840332,-18.16031,-5.80916,2.282443
-0.2050781,-0.09716797,1.105957,-21.08397,-21.45802,24.62595
-0.15625,-0.02148438,0.887207,-1.312977,8.59542,29.31298
-0.2270508,-0.02880859,0.9721681,8.496183,17.9771,-4.503817
-0.1860352,0.09863281,0.796875,14.25191,-3.328244,-20.22137
-0.2089844,0.05175781,0.8608398,-17,-4.08397,-0.5343512
-0.1933594,-0.144043,1.089355,-23.21374,-23.83969,4.839694
-0.1010742,-0.1220703,0.90625,2.091603,-0.3358779,28.33588
-0.2075195,-0.07177734,0.9863281,-9.648855,5.167939,-0.7862596
-0.1025391,-0.02148438,0.9448242,-1.541985,-5.450382,-29.13741
-0.1992188,-0.01464844,0.7963867,6.839694,2.21374,-19.0229
-0.1601563,-0.06298828,1.050293,-6.091603,-3.847328,-3.610687
-0.08593751,-0.07128906,0.9072266,4.580153,11,12.44275
-0.1157227,-0.05566406,0.8911133,2.961832,6.022901,-12.31298
-0.1542969,-0.01269531,0.9311523,24.64122,-7.10687,-28.33588
-0.1811523,0.01855469,0.8994141,-6.061068,3.908397,-22.49618
-0.2280273,-0.06542969,1.079102,-9.748092,0.1679389,19.76336
-0.09521483,-0.03564453,0.8427734,-6.320611,-0.5572519,18.06107
-0.1938477,-0.02783203,0.9521484,-0.648855,10.12977,-0.5877862
-0.1967773,0.1489258,0.8803711,3.137405,-5.137404,-27.54962
-0.1948242,0.04003906,0.8554688,6.526718,-4.534351,-2.931298
-0.2182617,-0.04101563,1.088379,-21.34351,-4.740458,19.28244
-0.1000977,-0.03076172,0.8515625,-12.98473,2.610687,42.14504
-0.168457,0.03076172,1.000977,9.541985,18.46565,10.43511
-0.246582,0.03417969,0.9003907,-33.45802,4.61832,42.75573
-0.1147461,-0.002929688,0.9482422,-18.13741,3.572519,69.83969
0.001464844,-0.2382813,1.025391,-55.82443,-7.572519,112.7557
-0.02197266,-0.1665039,0.9882813,-35.38931,-10.68702,135.7557
-0.1044922,-0.09863281,0.9848633,-2.610687,10.26718,82.0458
-0.1235352,0.04736328,0.90625,-16.24427,-0.3206107,52.75573
-0.2001953,0.07470703,0.8530273,-3.389313,7.732825,66.19084
-0.168457,0.02148438,1.006836,-27.57252,3.458015,25.99237
-0.1191406,-0.03759766,0.9223633,-20.24427,-1.992366,29.58779
-0.1704102,-0.08007813,0.9360352,12.74809,18.51908,22.15267
-0.1757813,-0.02050781,1.028809,7.938932,-13.00763,-8.244275
-0.234375,0.01611328,0.8447266,-10.96183,6.465649,-29.35878
-0.2421875,0.06787109,0.9990234,-25.53435,-3.633588,6.977099
-0.09033203,-0.09179688,0.9384766,-6.099236,0.5343512,35.98473
-0.2290039,0.05126953,0.9736328,24.76336,16.01527,3.961832
-0.07568359,0.171875,0.8256836,-1.969466,-7.725191,-27.51908
-0.206543,0.1230469,0.8115234,-12.37405,-3.129771,-22.36641
-0.1523438,-0.01708984,1.126465,-17.40458,-4.832061,5.633588
-0.1352539,0.001464844,0.8964844,7.351145,11.51145,34.41221
-0.1796875,0.08349609,0.9731445,-1.557252,6.267175,8.480916
-0.02441406,0.08593751,0.8989258,-1.343511,-3.656489,-18.0229
-0.2553711,0.006347656,0.8007813,-13.20611,-8.175572,-11.33588
-0.3115234,-0.009277344,1.102539,-20.71756,-11.55725,4.80916
-0.1123047,-0.06054688,0.8569336,-6.145038,4.007634,33.58015
-0.237793,-0.046875,0.9433594,11.01527,4.534351,4.854962
-0.2851563,-0.08398438,1.036621,6.503817,-11.30534,-17.0458
-0.2255859,-0.01611328,0.8789063,5.89313,-8.244275,-16
-0.2099609,0.05664063,1.069336,-12.27481,8.969465,-0.2442748
-0.1416016,0.01074219,0.9077148,-4.503817,3.80916,-1.870229
-0.2036133,0.006835938,0.8769531,-6.564886,-3.10687,-12.37405
-0.1835938,0.005371094,1.001953,11.87023,-10.84733,-42.38168
-0.1723633,0.09619141,0.8217773,-6.564886,-1.496183,-41.50382
-0.2504883,0.005371094,0.9707031,-12.1374,-1.801527,-5.961832
-0.09423828,-0.05859375,0.9790039,-11.70992,-1.671756,4.328244
-0.1704102,-0.03076172,0.8447266,4.870229,9.656487,-5.656488
-0.2895508,0.06640625,0.9414063,0.1603054,-21.12977,-52.55725
-0.1542969,0.05224609,0.8261719,-0.259542,-13.56489,-49.82443
-0.2314453,0.0234375,0.996582,-12.31298,-1.374046,-13.12977
-0.04492188,0.01757812,0.9541016,-3.641221,-0.4198473,3.633588
-0.1601563,-0.05078125,0.8491211,2.694656,9.80916,-1.320611
-0.2675781,0.1503906,1.026855,0.3358779,4.938932,-29.87786
-0.1635742,0.01074219,0.8061523,0.1145038,-8.175572,-46.72519
-0.1826172,0.01757812,0.9799805,-6.503817,-6.717557,-4.450382
-0.02880859,0.009765625,0.9453125,-17.12977,2.763359,13.29008
-0.2041016,-0.00390625,0.828125,14.0229,7.183206,2.29771
-0.2353516,0.09179688,1.018555,-3.480916,-15.24428,-48.92366
-0.06347656,0.1235352,0.8500977,21.32825,4.435114,-63.65649
-0.1435547,0.06689453,0.9589844,-28.65649,4.519084,-35.25191
-0.05957031,0.04736328,0.9375001,4.694656,0.9770992,-13.48855
-0.1040039,0.0078125,0.8676758,4.603054,5.282443,-52.03817
-0.04492188,0.1074219,0.9887695,31.75573,6.580153,-114.8244
-0.05273438,0.1865234,0.8911133,34.69466,-13.71756,-113.7328
-0.1274414,0.07470703,0.918457,-8.198473,-5.770992,-91.29771
-0.105957,0.04589844,0.9902344,3.435114,-2.503817,-36.20611
-0.08105469,-0.07958984,0.8803711,-8.687023,9.61832,-31.22137
-0.1210938,-0.015625,1.025879,27.9771,11.74809,-51.9542
-0.1401367,0.1679688,0.8251953,-4.099236,-8.755725,-68.70992
-0.1743164,0.07128906,0.8510742,-0.03816794,-1.114504,-42.47328
-0.1464844,-0.03125,1.129883,-42.32061,-4.59542,-8.969465
-0.05908203,-0.09667969,0.90625,5.374046,14.06107,16.64886
-0.1210938,-0.03857422,0.9384766,22.77099,12.32824,-25.55725
-0.05761719,-0.01367188,0.9082031,10.48855,2.427481,-33.24427
-0.1796875,-0.02294922,0.8481445,-6.587786,3.290076,-12.74809
-0.1445313,-0.1318359,1.018066,-21.57252,-1.778626,15.52672
-0.08642578,-0.1708984,0.8950195,-2.908397,2.419847,52.87786
-0.1689453,-0.1220703,0.9824219,16.9542,18.45038,35.9313
-0.1733398,0.07958984,0.7885742,-0.6793893,1.29771,5.396946
-0.2587891,0.009277344,0.7861328,-14.1374,2.129771,2.374046
-0.1279297,-0.1323242,1.052734,-8.580153,-11.89313,40.55725
-0.07519531,-0.1826172,0.9384766,-8.458015,-3.374046,57.61069
-0.1435547,-0.06884766,0.9350587,6.351145,13.63359,28.79389
-0.08837891,-0.003417969,0.9194336,11.8626,6.030534,15.18321
-0.1962891,0.02685547,0.8251953,-14.29771,2.625954,22.75573
-0.1962891,-0.04833984,1.030762,-20.05343,-4.503817,19.51145
-0.1425781,-0.06201172,0.8500977,-1.91603,3.946565,40.84733
-0.199707,-0.04003906,0.9453125,9.267176,11.29008,6.267175
-0.1855469,0.1669922,0.8139648,18.16031,-12.87786,-28.08397
-0.1889648,-0.015625,0.8901367,-14.71756,-6.473282,-16.78626
-0.05664063,-0.09521483,1.02002,-9.961832,-8.961832,40.62595
-0.1308594,-0.06005859,0.8505859,-6.923664,-4.725191,17.44275
-0.1425781,0.04345703,1.05957,4,21.63359,-23.48092
-0.137207,-0.06005859,0.9008789,-19.92366,-21.13741,-28.19847
-0.1831055,-0.00390625,0.9580078,-5.244275,0.4427481,-3.778626
-0.03173828,-0.04003906,1.012695,-8.091603,-12.10687,37.35115
-0.06982422,-0.07080078,0.8769531,-1.610687,1.167939,15.65649
-0.175293,0.1152344,0.9819336,13.10687,18.25191,-21.57252
-0.1308594,0.03759766,0.8710938,-8.412213,-7.29771,-39.58015
-0.1796875,-0.04296875,0.9443359,-9.122137,7.038168,-6.725191
-0.08496094,-0.09765625,0.940918,-11.78626,-6.145038,24.19847
-0.1308594,-0.05029297,0.8564453,-2.038168,9.740458,16.16794
-0.1713867,-0.02197266,1.04541,2.198473,-4.625954,-27.06107
-0.1020508,-0.04296875,0.9165039,3.450382,-0.07633588,-24.37405
-0.1459961,-0.046875,0.90625,-10.75572,11.77099,1.984733
-0.000488281,-0.1635742,0.9365234,-5.351145,-20.48092,43.07634
-0.1040039,-0.08398438,0.9243164,-5.022901,2.541985,21.96183
-0.2060547,-0.02929688,1.050293,0.3053435,10.68702,25.66412
-0.1865234,0.01855469,0.855957,-23.93893,7.770992,58.33588
-0.1054688,-0.03417969,0.9882813,-27.56489,-10.67939,102.0153
0.03515625,-0.2641602,1.024414,-31.38168,-19.76336,126.0611
-0.01513672,-0.1699219,0.9580078,-5.549618,-5.946565,124.855
-0.09277344,0.03369141,0.9770508,9.045801,23.52672,62.13741
-0.1459961,0.1904297,0.9584961,-15.51145,17.89313,64.86259
-0.1357422,0.1420898,0.8793945,-20.87023,-3.717557,49.52672
-0.1777344,0.05908203,0.9780273,-32.53435,-15.48855,34.29771
0.04736328,0.006347656,0.9760742,-30.40458,10.53435,44.38931
-0.184082,-0.06787109,0.8232422,-19.9313,12.79389,20.54198
-0.206543,0.02978516,1.008301,20.61069,15.79389,-10.20611
-0.1401367,0.04736328,0.8417969,28.46565,-2.519084,-16.68702
-0.230957,0.07275391,0.8164063,1.381679,-13.67939,-0.007633588
-0.2504883,0,1.101563,-25.37405,-5.969466,11.59542
-0.1411133,-0.01806641,0.8720703,16.76336,-0.3740458,15.96183
-0.2373047,-0.01025391,0.9570313,25.41221,5.641222,-13.21374
0.006347656,0.2011719,0.8691406,22.16031,1.870229,-30.87786
-0.2001953,0.04443359,0.7504883,-6.206107,-14.32824,0.7099237
-0.2905273,-0.02050781,1.063477,-13.09924,-11.91603,13.23664
-0.05224609,0.01953125,0.7905273,21.03053,1.08397,4.358778
-0.1875,0.03222656,0.9760742,16.16031,7.236641,-15.18321
0.02734375,0.2495117,0.8979492,13.34351,-14.17557,-35.0687
-0.1118164,0.1669922,0.8168945,-10.72519,4.167939,-6.08397
-0.2563477,0.1142578,1.06543,-29.71756,-13.64122,12.44275
-0.07617188,0.03613281,0.8803711,11.00763,5.59542,15.51908
-0.1508789,0.1054688,0.9697266,10.40458,4.679389,-19.15267
0.06689453,0.1533203,0.8969727,8.175572,-5.267175,-47.21374
-0.1123047,0.07421875,0.8623047,-13.45802,-3.221374,-13.80153
-0.1542969,-0.003417969,1.12207,15.74046,-20.29008,12.48855
-0.09667969,0.0234375,0.8549805,10.89313,1.137405,4.290076
-0.2197266,0.1552734,0.987793,19.92366,16.74046,-35.0458
-0.1723633,0.1386719,0.777832,-38.67939,-6.358778,-31.84733
-0.09033203,0.03662109,1.003906,-22.91603,-1.618321,-24.56489
0.09521483,-0.008789062,0.9277344,36.27481,5.61832,3.458015
-0.1904297,-0.09570313,0.8022461,-10.51145,12.53435,-14.9771
-0.262207,-0.1459961,1.018555,19.16794,18.22138,-17.65649
-0.04492188,0.005371094,0.8144531,-17.90076,4.290076,-45.69466
-0.1728516,-0.04541016,1.003418,-16.79389,-11.37405,1.908397
-0.01025391,-0.07470703,0.9291992,9.679389,-3.557252,10.82443
-0.1142578,-0.07324219,0.9194336,-1.122137,14.45802,2.290076
-0.1064453,0.05664063,1.080566,10.19084,-11.42748,-21.0458
-0.06787109,0.07373047,0.8481445,-12.68702,-1.541985,-22.90076
-0.1435547,0.06396484,0.9853516,-16.84733,12.74809,0.3282443
-0.06396484,0.05712891,0.8481445,13.38931,13.9542,-13.58779
-0.1010742,0.1611328,0.9350587,18.31298,-5.526718,-44.10687
-0.05712891,0.2988281,0.9472656,18.71756,-15.38168,-91.77862
-0.08789063,0.2163086,0.8457031,-4.183206,-16.61069,-62.96183
-0.1142578,0.1230469,1.086914,-12.16794,2.435114,-24.25954
-0.125,0.06005859,0.8671875,5.129771,11.21374,-39.89313
-0.2177734,0.1040039,1.016113,23.84733,3.572519,-52.30534
0.03808594,0.2617188,0.7954102,31.67175,-10.06107,-67.54198
-0.1513672,0.1689453,0.8203125,-7.801527,-10.42748,-72.98473
-0.1679688,0.06835938,1.174805,-13.68702,-42.31298,-47.52672
-0.04931641,0.03027344,0.9204102,17.13741,4.526718,-56.83969
-0.06201172,0.1313477,0.9658203,30.58779,5.10687,-63.78626
0.1186523,0.2583008,0.8540039,38.19848,-14.90076,-80.229
-0.1044922,0.1396484,0.875,4.389313,-1.694656,-60.60305
-0.09912109,0.01464844,1.094727,-25.87786,7.580153,23.87786
-0.06396484,0.06835938,0.8735352,1.778626,10.28244,-7.519084
-0.121582,0.1152344,1.030273,37.32824,-6.435114,-29.22901
0.03222656,0.1274414,0.9008789,-2.274809,-3.526718,-27.96947
-0.08886719,0.05126953,0.9091797,-28.87023,1.328244,11.9084
0.105957,0.04296875,1.055664,-12.24428,-10.68702,82.92367
-0.06884766,0.03271484,0.8520508,-2.465649,19.41221,52.67176
-0.05810547,0.1591797,1.026855,8.847328,22.82443,20.0229
-0.1020508,0.1362305,0.8408203,-7.389313,22.10687,19.23664
-0.1523438,0.1298828,0.8823242,-21.70229,-10.29771,41.40458
-0.1977539,0.08203125,1.092285,-37.94656,-3.29771,63.15267
-0.1035156,0.01220703,0.8041992,4.198473,2.198473,55.38931
-0.1401367,0.1108398,0.9975586,31.91603,11.16031,0.7862596
-0.000488281,0.2353516,0.9077148,-6.458015,-22.01527,-9.992367
-0.07910156,0.07324219,0.8925781,-16.0916,4.885496,-5.61832
-0.1147461,0.03955078,1.120605,-21.86259,-13.42748,21.05343
-0.05175781,0.02539062,0.8574219,7.167939,4.175572,27.56489
-0.1269531,0.08837891,0.9736328,16.76336,7.572519,-8.572519
0.04589844,0.1225586,0.8984375,8.580153,-11.06107,-25.77099
-0.08251953,0.03857422,0.8608398,-11.57252,-11.19847,-8.938931
-0.1474609,0.1113281,1.040527,-17.22901,-4.21374,14.41221
-0.05273438,0.02050781,0.8491211,11.42748,8.061069,24.86259
-0.08984375,0.06054688,0.9580078,11.74046,8.793893,-10.86259
0.06640625,0.1147461,0.9121094,0.2748091,-7.549618,-26.98473
-0.09326172,0.09326172,0.8471681,-16.32061,-4.656488,-18.16031
-0.1054688,0.07666016,1.055664,-22.71756,-6.396946,9.229008
-0.01367188,-0.08544922,0.9375001,-11.55725,9.572519,16.58779
-0.08593751,-0.01513672,0.8833008,0.8473283,5.427481,6.396946
-0.1308594,0.05908203,1.02832,9.305344,1.923664,-9.610687
-0.05859375,0.07177734,0.8618164,-10.16031,3.618321,-12.17557
-0.1533203,0.06640625,0.9765625,-23.96183,11.22901,12.64122
-0.01318359,-0.08398438,0.9814453,-0.9007633,-1.503817,6.557252
-0.1240234,0.03613281,0.8779297,8.59542,7.183206,6.755725
-0.1787109,0.1162109,1.048828,11.16031,-13.94656,-0.06870229
-0.1865234,0.08691406,0.809082,-2.725191,-8.396947,-7.068702
-0.1459961,0.1254883,0.949707,-22.16794,-7.862596,-3.198473
0.02197266,-0.02832031,0.934082,-3.358779,-6.801527,0.4732824
-0.1484375,-0.046875,0.9145508,-9.946565,2.717557,1.442748
-0.06835938,-0.009765625,0.9853516,-2.366412,-1.435114,13
-0.1020508,0.08496094,0.8188477,-0.3969466,2.450382,40.06107
0.02783203,0.1494141,1,-18.84733,28.26718,93.60305
-0.07714844,-0.09179688,0.9555664,-30.9771,12.48855,100.9618
-0.1210938,-0.1235352,0.9667969,-23.59542,10.49618,119.4275
-0.1723633,-0.02099609,0.9101563,-7.740458,21.84733,73.83206
-0.1411133,0.1074219,0.9375001,-34.92366,-0.5343512,57.54198
-0.2133789,0.1103516,0.8647461,-21.46565,3.122137,73.35878
-0.21875,0.1484375,0.9257813,-16.81679,12.94656,45.10687
-0.1064453,0.04833984,0.9013672,-20.80916,-6.320611,30.43511
-0.1923828,-0.02490234,0.9057617,-4.320611,-2.358779,25.51908
-0.3115234,0.1206055,0.9921875,16.32825,2.832061,-16.82443
-0.2324219,0.1367188,0.8378906,-0.389313,1.503817,-0.007633588
-0.2744141,0.199707,0.8422852,-23.27481,-2.229008,5.351145
-0.04150391,0.09228517,0.9169922,-15.29008,-6.274809,17.78626
-0.2177734,0.03222656,0.8769531,10.45802,2.312977,6.908397
-0.2832031,0.1958008,1.01123,12.19847,-13.41985,-20.56489
-0.1601563,0.09765625,0.8652344,-6.946565,-10.77863,-11.80153
-0.2011719,0.1479492,0.9638672,-25.10687,4.038168,6.824428
-0.05859375,0.002929688,0.9506836,-21.29008,0.3129771,13.89313
-0.1694336,0.03759766,0.9150391,0.4427481,-5.129771,4.908397
-0.1303711,0.06591797,0.9868164,10.0229,-0.03816794,-8.977099
-0.1865234,0.1591797,0.8203125,2.40458,2.045802,-8.122137
-0.1806641,0.1811523,0.9907228,-26.45802,0.389313,16.78626
-0.0546875,0.01416016,0.9248047,-10.74809,8.480916,12.98473
-0.1582031,0.05224609,0.9394531,4.450382,11.43511,1.389313
-0.1601563,0.112793,0.8564453,19.0687,-24.15267,-16.26718
-0.1791992,0.1015625,0.9042969,-13.47328,1.473282,-6.496183
-0.1640625,-0.02246094,1.063477,-8.351145,-3.633588,20.57252
-0.1020508,0.05175781,0.8666992,1.732824,3.618321,8.740458
-0.1489258,0.1015625,1.039063,-10.60305,5.282443,-17.21374
-0.1191406,0.07324219,0.8720703,2.854962,-13.24428,-13.50382
-0.1923828,0.09570313,0.9414063,-8.59542,-7.053435,-11.60305
0.04833984,0.06835938,0.8901367,-13.57252,-4.625954,-13.66412
-0.1660156,0.03173828,0.8129883,-6.748092,4.435114,-11.67939
-0.2060547,0.1171875,1.008301,-5.221374,2.671756,-37.28244
-0.1030273,0.1035156,0.9584961,-2.152672,-16.68702,-35.55725
-0.1767578,0.07714844,0.9301758,-12.45802,-2.061069,-20.43511
-0.07470703,0,1.104004,14.96183,-4.877862,26.58015
-0.1162109,0.04541016,0.8427734,-5.557252,12.9084,0.4503817
-0.15625,0.1035156,1.029297,21.50382,12.0229,-3.244275
-0.1235352,0.1728516,0.7885742,-3.564886,-0.8167939,-39.73283
-0.1757813,0.105957,0.8520508,-12.45038,-2.946565,-18.65649
-0.2978516,0.0625,1.095703,-9.984733,-15.00763,9.908397
-0.1259766,0.001953125,0.8388672,12.17557,10.82443,14.62595
-0.2109375,0.06689453,0.9331055,23.30534,9.564885,-18.9313
-0.01855469,0.2402344,0.8618164,0.7022901,-24.33588,-54.76336
-0.1630859,0.07519531,0.8422852,-12.60305,-8.854961,-21.96183
-0.1259766,0.0078125,1.039551,-4.480916,-9.709924,24.17557
-0.1640625,0.1396484,0.8178711,-1.725191,0.1450382,-15.48855
-0.1118164,0.1494141,1.013672,13.05344,16.16031,-54.10687
-0.1606445,0.1728516,0.9194336,0.02290076,-24.64886,-74.37405
-0.1787109,0.1123047,0.8930664,-10.42748,-9.969465,-52.43512
-0.09228517,0.04150391,1.104004,-35,-7.641222,-48.77099
-0.04492188,0,0.868164,7.145038,8.633588,-58.22901
-0.08789063,-0.02685547,0.9785156,16.24427,6.793893,-81.87786
-0.06396484,-0.046875,0.9643555,-3.21374,7.717557,-91.8855
-0.004394531,0.1269531,0.9189454,35.41985,-17.29771,-85.0229
-0.09619141,0.09472656,0.9008789,5.664122,-16.53435,-89.66412
-0.07080078,0.07275391,1.038086,-11.32061,-5.366412,-51.50382
0.01708984,-0.06591797,0.965332,-1.572519,13.91603,-6.938932
-0.08496094,0.009277344,0.8935547,-8.229008,-0.3969466,2.198473
-0.08544922,0.08007813,1.016602,13.68702,21.89313,-28.90076
-0.09130859,0.15625,0.9272461,-2.603053,1.122137,-30.33588
-0.1230469,0.04345703,0.9306641,-21.06107,-1.19084,-2.80916
-0.06005859,-0.07470703,1.026855,-2.083969,0.7938931,36.9313
-0.05810547,-0.02197266,0.9082031,9.435115,-2.648855,11.64886
-0.1245117,-0.06445313,0.9829102,9.954199,12.45038,8.816793
-0.02636719,0.08837891,0.8613281,-2.198473,-0.9923665,7.122138
-0.09667969,0.08837891,0.868164,-13.38931,5.908397,25.00763
-0.1474609,0.0703125,1.04541,-17.35878,-11.79389,29.46565
-0.01123047,-0.07617188,0.918457,-2.29771,4.900764,43.62595
-0.1040039,0.01025391,0.9643555,10.42748,20.71756,12.57252
0.01611328,0.1176758,0.8955078,0.6793893,-8.877863,-5.885496
-0.09130859,0.06787109,0.8515625,-18.87786,6.045802,10.87023
-0.05761719,-0.02148438,1.148438,-14.65649,-22.66412,31.08397
-0.09082031,0.05615234,0.8452148,-7.854962,10.31298,12.78626
-0.1220703,0.09130859,1.035645,-4.847328,14.53435,-3.862595
-0.05908203,0.1088867,0.8725586,-9.076336,6.801527,1.19084
-0.1494141,0.1118164,0.9858398,-11.83206,-2.21374,14.67939
0,0.008789062,0.956543,0.9312977,8.954199,22.18321
-0.1079102,0.007324219,0.8789063,5.015267,8.633588,0.3587786
0.003417969,0.1040039,0.9575195,2.122137,-7.992366,-17.14504
-0.1767578,0.05419922,0.8178711,-14.06107,-2.038168,-9.938931
-0.1259766,-0.02978516,1.094727,-16.64886,-7.145038,14.1145
-0.08349609,0.0546875,0.8256836,-8.053435,9.099236,17.47328
-0.1259766,0.1401367,1.01709,9.916031,12.20611,-16.00763
-0.1245117,0.1054688,0.8828125,-15.33588,1.908397,-30.57252
-0.1728516,0.04052734,0.8950195,-13.8626,-11.46565,-6.328244
0.05908203,-0.03759766,0.9599609,-3.29771,-3.114504,15.45038
-0.04589844,0.02099609,0.8637695,3.10687,8.320611,6.053435
-0.1523438,0.05712891,1.064941,-8.312977,-7.045802,-5.167939
-0.1098633,0.046875,0.8291016,-4.633588,3.114504,-18.80916
-0.1445313,0.04638672,1.15625,-5.244275,-7.274809,10.70992
-0.03125,-0.04882813,0.8842772,5.984733,3.007634,19.32825
-0.03369141,0.004394531,1.018555,1.48855,22.87786,3.015267
-0.1152344,0.005371094,0.9003907,-21.82443,-6.503817,33.49618
-0.06396484,-0.01806641,0.9379883,-12.87786,-0.3816794,95.0458
0.05664063,-0.1455078,0.9594727,-25.0229,12.40458,146.6794
0.004882812,-0.03613281,0.9985352,-19.0229,7.274809,128.2824
-0.09619141,0.02490234,0.9726563,-11.64886,21.83969,76.49619
-0.1191406,0.1337891,0.8935547,-18.94657,6.19084,66.9771
-0.09130859,0.1650391,0.8666992,-14.96183,4.137404,45.76336
-0.1323242,0.09472656,0.9599609,-16.9771,-3.381679,25.39695
0.01220703,-0.03369141,0.890625,-15.29771,-5.473282,36.82443
-0.1098633,-0.02587891,0.8779297,-10.82443,6.21374,32.24427
-0.1855469,0.1645508,0.9721681,-17.89313,15.94656,4.244275
-0.05908203,0.02636719,0.9116211,-4.732825,-9.503817,16.84733
-0.05273438,0.09228517,1.030273,-13.35878,6.122138,10.36641
-0.03857422,0.01074219,0.9072266,-7.709924,0.1374046,10.54198
-0.1030273,0.002441406,0.8725586,-2.114504,1.244275,8.206107
-0.2290039,0.06298828,1.021973,-5.541985,8.351145,-7.160306
-0.1513672,0.01367188,0.8144531,10.49618,-12.31298,-18.70229
-0.08837891,0.09277344,1.027832,4.076336,5.480916,2.480916
-0.02734375,-0.06494141,0.9052734,-16.46565,-7.183206,9.38168
-0.06201172,0.01757812,0.8754883,5.648855,3.916031,7.526718
-0.190918,0.1171875,1.032227,-10.46565,1.709924,-31.54962
-0.08886719,0.06933594,0.8691406,-1.59542,-6.320611,-27.77863
-0.08398438,0.0078125,0.9672852,-25.37405,-1.137405,-3.694656
0.008789062,0.03857422,0.9521484,-20.65649,-6.458015,21.32825
-0.03076172,0.01318359,0.9262695,-7.419847,8.992367,-10.60305
-0.1347656,-0.04638672,1.036621,-2.801527,1.152672,-19.22137
-0.06005859,0.008789062,0.8447266,0.5648855,-10.16794,-23.43511
-0.06933594,-0.004394531,1.049805,-12.75572,9.251908,-8.160305
-0.08544922,-0.01806641,0.8935547,-9.717557,-1.984733,9.076336
-0.005859375,0.04052734,0.9331055,20.35878,2.832061,-3.137405
-0.1835938,0.112793,1.010742,-23.08397,-6.694656,-12.90076
-0.09130859,0.04150391,0.8540039,-7.580153,-3.091603,-35.58015
-0.08154297,0.01855469,1.086914,-16.58015,3.351145,-0.7099237
-0.03320313,-0.0546875,0.8359375,-3.748092,7.358778,15.07634
-0.112793,0.04589844,1.010254,25.29008,15.94656,-15.12214
-0.0546875,0.1669922,0.7988281,8.648855,-14.61069,-44.57252
-0.1098633,0.0546875,0.8886719,-11.55725,-3.580153,-4.167939
-0.1816406,-0.03564453,1.040039,-18.41985,12.45038,-3.793893
-0.04980469,0.01904297,0.8603516,14.56489,3.038168,8.007633
-0.1108398,0.01025391,1.025391,23.29008,7.740458,-46.9542
-0.1152344,0.284668,0.7939454,27.39695,-21.69466,-79.16794
-0.1757813,0.109375,0.8642578,-9.053435,-6.007634,-41.27481
-0.1420898,0.1113281,1.144531,-23.65649,-15.35114,-27.70992
-0.04003906,0.01220703,0.8037109,19.91603,11.17557,-79.65649
0.1650391,0.05761719,1.066895,31.81679,14.12214,-122.5038
-0.09472656,0.1845703,1.016602,12.07634,-8.251908,-138.5573
0.01220703,0.02929688,0.9125977,-21.74046,6.534351,-90.77863
0.07275391,0.0625,0.9790039,-0.03053435,-14.36641,-37.17557
-0.02294922,-0.1000977,0.9052734,-9.106871,7.656488,-36.14504
-0.04638672,-0.006835938,0.9643555,20.73282,27.65649,-35.12977
0.06201172,0.1010742,0.9179688,-16.55725,-3.412214,-28.70992
-0.06494141,0.001953125,0.9013672,-17.39695,-0.4732824,-9.900764
-0.002441406,-0.1020508,1.106934,7.725191,-1.816794,9.320611
-0.00390625,-0.02490234,0.8266602,-2.236641,4.038168,10.44275
-0.03222656,0.02587891,1.043457,7.709924,17.08397,-0.3053435
-0.02392578,0.03271484,0.9101563,-25.76336,-6.450382,-14.75572
-0.05957031,0.004882812,0.9560546,-12.1374,-4.992366,9.755725
-0.01660156,-0.1176758,0.9868164,16.43511,9.587787,55.44275
-0.07226563,-0.03320313,0.8466797,-14.03053,9.587787,35.12214
-0.1469727,0.140625,1.025879,9.664123,9.969465,-6.89313
-0.05322266,-0.0234375,0.8691406,-3.427481,-13.96183,-5.396946
-0.03613281,-0.02832031,0.9970703,-25.03817,0.2366412,12.32824
0.07128906,-0.08154297,0.9594727,-15.78626,-18.01527,21.56489
-0.02783203,-0.0390625,0.9165039,0.8625955,4.122138,14.38931
0.08837891,0.03271484,0.9589844,22.21374,3.885496,-23.56489
-0.07910156,-0.005371094,0.824707,-11.68702,-2.664122,-7.740458
-0.06787109,-0.1484375,1.149414,-5.687023,-16.48855,35.09924
0.001953125,-0.06298828,0.8061523,-10.55725,6.59542,23.60305
-0.05322266,0.001464844,1.173828,3.519084,13.12214,-6.80916
0.005859375,-0.01708984,0.8413086,-30.29771,-13.47328,-0.6793893
-0.09033203,0.02294922,0.9614258,-10.01527,-3.030534,1.137405
0.1469727,-0.1259766,0.9589844,-6.908397,-5.778626,26.83206
-0.07617188,-0.03857422,0.8657228,-4.114504,0.6412214,14.12977
-0.1293945,0.05371094,1.028809,5.198473,6.19084,-25.52672
-0.05761719,-0.03613281,0.831543,3.671756,-5.748092,-18.70229
-0.07470703,-0.03515625,1.033691,-5.114504,6.450382,8.198473
0.03808594,-0.01757812,0.8842772,-12.22901,2.458015,-4.580153
-0.1181641,-0.03271484,0.8803711,13.58779,6.198473,-7.59542
-0.2011719,0.02392578,1.092773,-6.549618,-23.17557,-20.1145
-0.07324219,0.08349609,0.828125,-16.39695,-10.23664,-29.51145
-0.03027344,-0.02001953,1.078125,-16.83969,13.8855,-7.312977
0.02148438,-0.05712891,0.9829102,-6.328244,3.183206,-24.80153
0.06494141,-0.05224609,1.047363,19.16031,11.70229,-92.58015
-0.06542969,0.07519531,0.9492188,35.21374,-1.969466,-147.3664
-0.1230469,0.2080078,0.8457031,15.33588,-20.8855,-111.3893
-0.06933594,-0.03076172,1.009277,-9.297709,-9.114504,-92.96183
-0.05615234,-0.1806641,0.9970703,-2.419847,1.19084,-44.35878
-0.07373047,-0.09814453,0.9135742,-9.893129,0.3358779,-37.74046
-0.05566406,-0.02001953,1.01123,14.69466,21.06107,-43.38931
-0.02636719,0.1245117,0.8837891,-15.48855,-7.427481,-53.1832
-0.1245117,-0.02197266,0.8901367,-21.54962,2.114504,-26.93893
-0.05224609,0.03808594,1.087891,-10.31298,-7.51145,10.76336
-0.03466797,-0.1245117,0.918457,9.984733,8.801527,4
-0.1191406,-0.05957031,1.00293,22.67939,0.1832061,-11.30534
-0.08251953,0.1108398,0.8417969,-10.0687,-19.0687,-33.25954
-0.09814453,-0.046875,0.987793,-11.46565,-2.793893,6.366412
0.03222656,-0.1723633,0.9580078,-2.198473,0.03053435,43.0458
-0.06347656,-0.06347656,0.9038086,-3.022901,16.54198,19.9313
-0.08349609,0.07714844,0.9960938,5.21374,19.42748,-12.28244
-0.03857422,-0.02050781,0.890625,-2.633588,-10.52672,-25.40458
-0.01269531,-0.05029297,0.9868164,-7.427481,0.04580153,17.83969
0.08837891,-0.09521483,0.9584961,-21.22137,-5.312977,21.47328
-0.08300781,-0.06933594,0.8666992,-1.778626,1.656489,24.9313
-0.1303711,0.06103516,1.119141,-0.0610687,5.572519,-23.48092
-0.05957031,0.01611328,0.8505859,-4.480916,-6.687023,-5.977099
-0.06640625,0.04736328,1.050293,-15.66412,10.40458,28.52672
0.03076172,-0.05761719,0.9555664,-16.59542,2.648855,16.18321
-0.0390625,-0.05078125,0.9482422,17.72519,6.40458,8.160305
-0.03710938,-0.04345703,1.003906,10.35878,4.78626,-34.34351
-0.04052734,0.05957031,0.8344727,7.282443,-3.496183,-43.87786
-0.1049805,0.03564453,1.037109,-14.78626,8.954199,-7.389313
0.06054688,0.02148438,0.909668,18.29008,8.229008,-11.0458
-0.01123047,0.01757812,0.984375,13.30534,21.77862,-37.9313
0.08251953,0.1616211,0.8896484,-0.5954198,-21.37405,-53.64885
-0.1137695,0.05908203,0.8530273,-27.10687,-2.954198,-37.22901
-0.09716797,-0.01953125,1.10791,-50.45802,-0.1603054,-28.0458
0.05908203,-0.2045898,0.9208984,8.061069,11.51145,-2.969466
-0.0703125,-0.01953125,0.9057617,8.725191,-4.557252,-13.89313
0.09179688,0.02685547,0.8881836,36.32824,24.58779,-23.10687
-0.06347656,-0.03613281,0.8725586,-2.549618,-7.610687,-17.10687
-0.1708984,-0.06396484,1.07959,-27.42748,15.48092,-16.21374
0.001464844,-0.02832031,0.8662109,28.64122,4.91603,-12.28244
-0.1240234,-0.08544922,0.9838867,15.81679,4.335878,-27.84733
-0.08056641,0.1259766,0.8144531,17.47328,8.961832,-36.61832
-0.1210938,0.000488281,0.8793945,-9.793892,-12.15267,-17.25191
-0.02587891,-0.09521483,1.089844,-22.35114,-0.8015267,7.572519
-0.08496094,-0.105957,0.828125,1.961832,4.236641,-6.534351
-0.1103516,-0.1430664,1.055664,14.76336,23.80916,-47.64122
-0.05078125,0.04492188,0.9013672,-16.12977,-2.89313,-44.29008
-0.1586914,-0.03857422,0.9375001,-17.03053,-13.29008,-46.0229
0.08105469,-0.1376953,0.9047852,1.358779,16.33588,-23.18321
0.06884766,-0.2016602,0.8984375,-4.19084,9.763359,-37.94656
-0.07128906,-0.05859375,0.9936523,10.22137,22.54198,-55.20611
-0.01318359,-0.05615234,0.9028319,-15.22901,-2.221374,-38.01527
-0.00390625,-0.04150391,1.030273,-12.0916,-2.885496,-27.13741
0.1362305,-0.04736328,0.9194336,5.343512,12.55725,-24.35114
-0.004394531,-0.1157227,0.8740234,1.282443,12.10687,-26.0687
-0.02294922,0.06982422,0.9956055,11.25191,6.900764,-45.60305
0.06396484,0.008300781,0.8984375,-22.42748,-16.47328,-91.03817
-0.02734375,-0.06298828,0.9521484,-17.17557,6.908397,-50.8168
0.105957,-0.01806641,0.8720703,-17.87786,9.961832,-45.70992
0.01123047,-0.1000977,0.9013672,28.48092,21.51145,-50.62595
-0.08593751,0.01806641,0.9467773,11.77863,15.82443,-68
0.0078125,0.1679688,0.8413086,-4.236641,-27.99237,-68.42748
-0.08691406,0.003417969,0.8994141,-23.54198,-4.755725,-51.32061
0.04785156,-0.1386719,1.099121,-15.77099,-8.015267,-14.81679
0.1196289,-0.1186523,0.9438477,5.641222,10.27481,5.358778
0.01367188,-0.1020508,0.9418945,4.847328,3.076336,-33.00763
0.008789062,-0.1274414,1.02832,5.305344,3.465649,-47.06107
-0.09619141,-0.02783203,0.8208008,9.870229,-7.305344,-27.68702
0.07080078,-0.1147461,1.071777,0.4580153,21.38168,0.519084
0.04980469,-0.1420898,0.8808594,-20.58779,-12.0229,33.07634
-0.04248047,-0.1313477,0.8623047,5.145038,-14.8855,35.38931
0.05810547,-0.08056641,1.072266,-29.56489,-2.335878,-1.793893
-0.006347656,-0.01708984,0.8657228,-8.877863,-9.755725,15.54198
0.04589844,-0.04833984,1.048828,-12.93893,-5.80916,21.74046
0.1088867,-0.1259766,0.8935547,-8.389313,0.1526718,38.08397
-0.01171875,-0.1166992,0.8789063,-1.503817,1.709924,29.38168
-0.1416016,-0.02001953,1.092773,-3.687023,-3.129771,-19.79389
-0.07568359,0.02441406,0.8188477,-11.63359,-3.206107,44.1832
-0.05078125,-0.1069336,0.965332,-13.65649,-1.832061,48.27481
0.144043,-0.2055664,0.9555664,-10.0458,-15,118.0687
-0.08300781,-0.2041016,0.8251953,-4.389313,0.4580153,91.45802
-0.07421875,-0.09228517,1.108398,-4.358778,1.480916,21.50382
-0.06591797,-0.07470703,0.8061523,-15.9313,-9.694656,17.22137
0.006347656,-0.02685547,1.067383,-24.58779,2.129771,31.09924
0.05957031,-0.1689453,0.9116211,-18.0458,-1.748092,49.10687
-0.02392578,-0.1708984,0.9638672,15.51145,10.41221,24.38931
0.05175781,-0.03955078,0.9501953,7.061068,6.816794,-11.55725
-0.05615234,-0.09375,0.828125,-25.9313,-18.9771,1.801527
-0.1582031,-0.02880859,1.133301,-23.90076,-4.984733,14.94656
0.05175781,-0.04589844,0.8149413,20.35114,8.38168,3.59542
0.03369141,-0.04589844,1.06543,2.679389,11.99237,-27.77099
0.1054688,0.1113281,0.8828125,-15.53435,12.12214,-48.51145
-0.08789063,-0.109375,0.9116211,-19.70992,10.23664,-17.53435
0.1254883,-0.1459961,0.8666992,4.763359,11.19084,20.22137
-0.03710938,-0.1088867,0.8320313,8.923664,0.4427481,7.221374
-0.0546875,-0.1459961,1.100098,-21.98473,-15.52672,-32.45802
-0.09521483,-0.1254883,0.84375,0.4427481,-10.64122,7.076336
-0.07373047,-0.07958984,1.062988,-25.64122,8.931297,9.366412
-0.002441406,-0.1816406,0.9238281,24.40458,22.80153,17.45802
-0.02294922,-0.1191406,0.9028319,11.00763,6.030534,-12.25191
0.2104492,0.08789063,0.8735352,5.290076,-32.73283,-40.1832
-0.04980469,-0.03955078,0.8173828,-27.52672,-3.526718,-6.534351
-0.1416016,-0.1469727,1.154785,-28.34351,-4.206107,4.519084
0.004394531,-0.1254883,0.8286134,36.84733,19.29008,7.022901
-0.07421875,-0.05761719,0.980957,17.42748,13.78626,-14.61069
0.07617188,0.02392578,0.9287109,-27.48092,-1.572519,-14.66412
-0.09521483,-0.09326172,0.8930664,-12.53435,9.045801,16.87023
0.2470703,-0.09179688,0.9575195,-9.671756,1.450382,40.9771
-0.01757812,-0.02148438,0.796875,-18.70229,6.29771,33.84733
-0.1044922,-0.168457,1.117188,4.694656,11.34351,25.09924
-0.05517578,-0.04199219,0.8520508,-23.70229,-2.793893,86.74809
0.06396484,0.01123047,1.004395,-22.74046,-6.328244,136.5191
0.08105469,-0.203125,0.9130859,-25.61069,-6.114504,122.458
0.0625,-0.1508789,0.9785156,-5.954198,-12.07634,119.855
-0.02294922,-0.1464844,0.9453125,-9.46565,-5.343512,48.09924
0.02685547,-0.004394531,0.9453125,-15.0916,-4.503817,36.66412
-0.05761719,0.009277344,0.8530273,-10.76336,-15.61832,29.77862
0.05126953,-0.04345703,1.062988,-20.33588,7.389313,25.13741
0.02832031,-0.2612305,0.8881836,-20.03817,13.06107,43.84733
-0.01367188,-0.1503906,0.9140625,12.30534,0.9694656,-3.885496
-0.08886719,-0.1733398,0.9550781,7.229008,10.07634,-44.50382
-0.09130859,-0.03173828,0.8081055,3.770992,-7.473282,-5.870229
-0.01367188,-0.08496094,1.045898,-20.18321,-2,15.52672
0.1411133,-0.1538086,0.9086914,-12.18321,-0.6030535,-4.687023
-0.04882813,-0.1889648,0.8500977,8.358779,10.48092,1.908397
-0.04443359,-0.1113281,1.118652,9.694656,-0.1908397,-30.16794
0.01074219,-0.1220703,0.8232422,-18.38168,-15.35114,-28.91603
0.07275391,-0.06152344,1.031738,-4.114504,-4.70229,24.77099
0.09033203,-0.2319336,0.8925781,-23.80916,0.6183206,12.75572
-0.046875,-0.2006836,0.9013672,-0.1679389,11.37405,26.36641
-0.1225586,-0.02539062,1.072266,2.10687,13.45802,-15.9084
0.03222656,-0.09765625,0.8842772,-17.41985,-10.67939,-15
-0.08251953,-0.09228517,0.9116211,-20.33588,-14.72519,17
0.1254883,-0.2524414,1,-7.198473,0.610687,51.15267
0.004882812,-0.1699219,0.8085938,-10.89313,-3.900763,26.21374
-0.01416016,-0.1616211,0.9755859,9.541985,3.259542,1.48855
-0.078125,-0.07226563,0.8051758,21.77862,10.37405,-0.04580153
-0.04833984,0.0390625,0.8911133,-15.65649,-12.29771,3.343511
0.02001953,-0.1030273,1.020508,-19.43511,-3.083969,12.47328
0.08886719,-0.1987305,0.9238281,-20.47328,2.396947,-17.41221
0.01660156,-0.2143555,0.8911133,-13.52672,0.9007633,-23.27481
-0.06738281,-0.3032227,1.056641,10.9313,-0.8244275,-95.59542
-0.0234375,-0.1352539,0.8339844,-1.801527,9.099236,-48.78626
0.008300781,-0.07519531,1.045898,-12.58779,9.351145,-17.29771
0.06298828,-0.168457,0.9433594,-12.69466,2.19084,-21.16794
0.05078125,-0.21875,0.9145508,5.969466,15.35114,-46.40458
-0.05273438,-0.2324219,1.049805,16.47328,5.877862,-71.20611
-0.01708984,-0.1206055,0.8740234,0.4351145,-0.5343512,-52.38168
0.04150391,-0.08740234,1.080566,-26.80916,10.83969,-16.98473
0.1811523,-0.2207031,0.949707,-2.19084,13.80916,-7.175572
0.01074219,-0.1987305,0.9033203,18.20611,17.83969,-62.36641
0.2260742,0.08789063,1.026855,57.99237,4.854962,-123.229
-0.03417969,0.08496094,0.84375,20.28244,8.015267,-101.4504
-0.000976562,-0.1450195,1.022949,-41.32824,8.175572,-44.10687
0.07080078,-0.09863281,0.9257813,-14,23.08397,-87.51145
0.03955078,-0.2089844,0.8491211,23.0687,15.29008,-77.16031
0.000488281,-0.1083984,1.084473,-3.755725,9.221375,-64.90076
0.05126953,-0.1586914,0.7426758,11.38168,8.366412,-90.82442
-0.006835938,-0.1186523,1.138184,-27.83969,16.54962,34.29008
0.1938477,-0.1030273,0.9135742,-40.25954,5.351145,57.14504
-0.01416016,-0.1313477,0.8974609,20.50382,2.832061,10.76336
0.03125,-0.1811523,1.077148,-13.35114,-6.045802,-56.25191
-0.03564453,-0.1206055,0.7739258,-22.37405,-8.801527,8.816793
0.03564453,-0.1665039,1.135742,-26.83206,7.198473,16.91603
0.2021484,-0.09521483,0.8535156,10.9084,27.34351,33.41221
-0.05859375,-0.121582,0.9077148,4.679389,-10.49618,-44.33588
0.04296875,-0.03466797,0.8491211,23.0687,-1.282443,-41.84733
-0.03076172,-0.1040039,0.9199219,-5.59542,-6.946565,12.68702
0.1064453,-0.3432617,1.008789,-6.152672,13.90076,65.87023
0.01904297,-0.1567383,0.706543,-11.76336,-5.633588,30.27481
-0.07568359,-0.1738281,1.150879,3.618321,-2.274809,-42.22901
0.02246094,-0.105957,0.7646484,-8.022901,-10.34351,-19.10687
0.02832031,-0.1484375,1.188477,-33.61832,5.412214,35.39695
0.08740234,-0.09814453,0.7216797,27.58778,21.31298,58.96947
-0.02978516,-0.144043,1.030762,8.091603,-11.24428,-40.45038
0.01904297,-0.03320313,0.8144531,-17.1145,-5.839694,-24.32061
-0.07226563,-0.1518555,0.9326172,-22.67939,-3.564886,2.320611
0.2646484,-0.3652344,1.019531,-1.984733,11.81679,53.52672
0.02441406,-0.190918,0.7426758,-4.442748,7.633588,15.41985
-0.1044922,-0.2036133,1.128418,15.12214,-8.977099,-32.74809
0.04638672,-0.2529297,0.840332,7.10687,3.206107,73.67175
0.1826172,-0.2504883,0.9833984,-9.083969,-15.29771,204.4122
0.1757813,-0.2856445,1.001953,-20.55725,-11.00763,187.5267
0.1557617,-0.3110352,0.815918,-2.458015,-21.20611,136.5802
0.09033203,0.000488281,1.121094,0.2137404,-19.07634,31.25191
0.01464844,-0.04296875,0.8198242,12.33588,-10.61832,20.55725
-0.02978516,-0.1010742,0.9990234,-16.80916,0.2061069,16.74809
0.277832,-0.3022461,1.09668,-1.977099,-10.86259,27.48855
-0.02832031,-0.1655273,0.753418,29.70229,22.39695,31.98473
-0.04736328,0.09912109,1.081055,8.267176,2.961832,-42.76336
0.09765625,-0.002441406,0.8603516,-12.15267,11.69466,-41.96947
-0.04833984,0.005859375,0.9277344,-48.9542,23.69466,-4.824428
0.2358398,-0.1420898,0.9663086,-3.664122,7.923664,28.64122
-0.08447266,-0.06982422,0.8178711,0.6946565,2.312977,10.66412
-0.06201172,0.09521483,1.091309,3.366412,6.625954,-36.55725
0.01611328,-0.1474609,0.7929688,4.167939,-9.717557,-85.74046
-0.05371094,-0.2509766,0.949707,-12.94656,-6.832061,13.54962
0.1665039,-0.1992188,0.9326172,3.473282,-8.236641,87.61069
0.02832031,-0.1928711,0.8471681,-14.54198,17.52672,48.09924
0.005371094,-0.1230469,1.19043,1.862595,17.60305,-50.99237
-0.1020508,-0.1362305,0.7451172,-8.740458,-2.572519,-56.77863
-0.08251953,-0.1645508,1.072754,-10.61069,16.31298,0.2290076
0.1479492,-0.1787109,0.8491211,-6.480916,15.30534,36.62595
-0.06933594,-0.1733398,0.8764648,18.20611,4.419847,-20.94657
0.005859375,-0.1606445,0.9077148,-14.61069,24.63359,-61.57252
-0.1972656,-0.2646484,0.7836914,3.145038,-13.59542,-31.49618
-0.07958984,-0.434082,1.107422,-25.06107,-27.31297,-57.93893
0.1108398,-0.2192383,0.8330078,20.41985,9.46565,-11.37405
0.1245117,-0.3706055,1.036621,10.19084,33.44275,-39.53435
0.01220703,-0.15625,0.8710938,9.374045,23.64122,-30.14504
-0.09814453,-0.1181641,0.9140625,15,0.6641222,-22.23664
0.001464844,-0.2470703,1.164063,-16.21374,-32.32061,15.16031
0.1318359,-0.1083984,0.8422852,20,-7.725191,25.05343
0.09570313,-0.09667969,0.9936523,-9.091603,17.03053,-33.55725
-0.002441406,0.1245117,0.8237305,2.923664,1.10687,-51.19847
-0.02294922,-0.07226563,0.8745117,-22.41221,7.816794,-35.48855
0.03417969,-0.4311523,1.075195,4.954198,5.854962,6.969466
-0.01708984,-0.08447266,0.8295898,15.29771,19.0687,-6.137404
-0.03710938,-0.1303711,0.9570313,4.938932,11.87786,-23.74809
-0.0234375,-0.07861328,0.890625,-11.74809,-5.465649,-26.26718
0.003417969,-0.1538086,1.008789,-7.70229,12.47328,-21.58779
0.06933594,-0.08300781,0.9291992,24.06107,17.08397,-41.50382
0.007324219,-0.1640625,0.9648438,3.259542,15.98473,-109.6947
0.02783203,0.1713867,0.9516602,41.87786,12.06107,-142.5114
-0.06054688,0.1103516,0.8989258,-8.015267,-10.75572,-112.7023
-0.125,-0.105957,0.9365234,-14.47328,1.671756,-61.66412
0.08691406,-0.1386719,1.057129,-39.22901,-3.862595,-21.54198
-0.02490234,-0.2128906,0.8759766,-3.351145,8.656488,6.206107
-0.04101563,-0.07714844,1.034668,-6.732825,12.18321,-39.29008
-0.04785156,-0.1098633,0.8867187,-7.824428,-24.25191,-26.98473
-0.1191406,-0.1342773,0.9204102,-8.496183,2.458015,2.305344
0.1074219,-0.2368164,1.020508,-4.129771,11.0916,20.63359
-0.004882812,-0.1557617,0.8051758,10.98473,-3.122137,11.03817
-0.01220703,-0.09863281,1.024902,15.26718,13.80153,-17.08397
0.04101563,-0.009277344,0.921875,-13.44275,-0.832061,-22.23664
-0.01611328,-0.08740234,0.9199219,-43.60305,-0.3664122,27.61069
0.1577148,-0.1552734,0.9326172,19.76336,-8.335877,48.83206
-0.04882813,-0.121582,0.8369141,18.42748,-10.41985,26.45038
-0.03808594,0.03515625,1.175781,34.31298,17.17557,10.59542
-0.02685547,-0.009765625,0.8027344,-2.984733,-16.22137,20.84733
0.08105469,0.05371094,1.037109,-29.83206,28.59542,34.19847
0.1000977,-0.05615234,0.8481445,16.12977,-13.22901,34.47328
-0.008789062,-0.009765625,1,10.65649,18.87786,-1.709924
-0.004882812,-0.03417969,0.8989258,-24.38168,-18.67175,-29.42748
-0.06884766,-0.152832,0.8862305,-27.55725,3.381679,-10.91603
0.1884766,-0.1318359,1.01123,-19.1145,-10.22901,21.64122
-0.006835938,-0.1386719,0.8496093,-0.4274809,-7.40458,19.63359
-0.06298828,-0.137207,1.165527,-8.923664,13.32061,-10.45802
-0.03759766,-0.06933594,0.8295898,-5.206107,-15.67939,-35.53435
0.02148438,-0.08789063,1.090332,-42.1145,0.9083969,0.1526718
0.08251953,-0.1918945,0.8671875,-3.29771,-1.030534,32.84733
0.09179688,-0.1518555,0.9858398,20.61832,16.70992,0.8625955
0.01513672,0.008300781,0.8603516,-42.57252,-23.96947,-22.72519
0.01367188,-0.199707,0.9677734,0.4274809,-2.679389,13.83206
0.1982422,-0.2304688,0.9282227,-1.251908,14.87786,92.12977
0.01904297,-0.1425781,0.8642578,-11.62595,-0.6870229,54.27481
-0.0078125,-0.02441406,1.00293,-2.465649,29.86259,-4.526718
-0.03710938,-0.1772461,0.8486328,-3.022901,-13.67939,60.20611
0.1606445,-0.1811523,0.9350587,-20.51145,-21.45038,135.8473
0.2373047,-0.3100586,1.023926,-23.81679,-28.09924,152.771
0.1098633,-0.3120117,0.9272461,-22.68702,-38.37405,166.2824
0.01123047,-0.07666016,1.07373,30.35878,40.32825,53.74046
0.02539062,-0.02636719,0.9174805,-17.81679,-2.770992,24
-0.07861328,-0.01171875,0.8842772,1.419847,-7.793893,42.20611
-0.046875,-0.1098633,1.080566,-21.90076,0.7099237,10.70229
0.04541016,-0.1445313,0.8256836,1.763359,-7.862596,25.05343
0.008300781,-0.04052734,0.9770508,21.06107,40.47328,-10.03817
0.1611328,0.04443359,0.9038086,-15.40458,2.19084,-27.30534
-0.05273438,-0.07763672,0.8867187,-16.58015,9.59542,-0.519084
0.284668,-0.1748047,0.9179688,1.473282,-23.70992,42.25191
-0.07373047,-0.03369141,0.8623047,-2.916031,-2.305344,21.76336
-0.2495117,0.05322266,1.105469,20.21374,21.9771,16.14504
-0.05908203,-0.03857422,0.8579102,-22.8855,11.48855,-14.08397
-0.05175781,-0.159668,1.086914,-14.56489,29.10687,20.76336
0.06152344,-0.284668,0.8696289,17.35114,8.526717,11.83206
-0.09912109,-0.2475586,0.9350587,28.27481,9.244275,-16.21374
0.08837891,0.121582,0.8325195,42.83969,1.709924,-41.27481
-0.1176758,0.1181641,0.7138672,-2.625954,4.923664,-27.34351
0.009277344,-0.1030273,1.169434,28.54198,-46.49618,25.06107
-0.06054688,-0.04199219,0.8334961,21.9084,3.305344,-6.129771
-0.1655273,0.1425781,1.098633,-19.29771,14.29008,-43.76336
-0.112793,0.0234375,0.7241211,-11.00763,12.91603,-30.52672
-0.05957031,-0.09960938,0.984375,-35.70992,-0.8015267,-5.732825
0.206543,-0.05664063,0.9155273,-8.488549,10.55725,-2.045802
-0.03466797,-0.1650391,0.8666992,-9.236641,9.229008,-6.839694
0.1113281,-0.1611328,1.052246,17.89313,17.0229,-50.77863
-0.08642578,-0.1035156,0.7719727,-12.80916,-11.71756,-34.62595
-0.1762695,-0.2470703,1.202637,-21.77862,-32.0916,-8.328244
0.04492188,-0.06982422,0.7983398,36.64122,24.41222,20.27481
-0.04736328,-0.06005859,1.022461,9.679389,24.42748,-25.41985
0.07275391,0.1816406,0.8862305,6.572519,-4.816794,-76.70992
-0.1293945,-0.02636719,0.8999023,-30.0458,7.679389,-32.25954
0.2314453,-0.206543,1.013672,2.022901,-0.7328244,0.1068702
-0.009765625,-0.1694336,0.8066406,-2.160305,1.458015,-29.62595
-0.009765625,-0.1337891,1.103027,-5.114504,-2.564886,-39.55725
-0.06640625,-0.1054688,0.7749023,-7.061068,-1.969466,-18.70992
0.03466797,-0.1723633,0.9892578,-21.90076,-18.37405,25.61069
0.1376953,-0.2558594,0.8339844,9.78626,-8.679389,56.51908
0.03564453,-0.2050781,0.9711914,29.76336,9.396947,40.22901
0.2075195,-0.0078125,0.9130859,40.61069,24.34351,51.70229
-0.07275391,-0.09912109,0.8769531,-19.91603,-15.83969,85.20611
0.05957031,-0.265625,1.075195,30.60305,39.55725,144.0992
0.02734375,-0.1538086,0.8857422,-12.12214,-15.60305,80.8168
0.03466797,-0.1132813,1.150391,18.54962,-2.465649,67.0687
0.03662109,-0.03955078,0.8984375,-15.98473,14.21374,81.54962
0.03369141,0.02929688,0.9575195,0.4580153,9.534351,128.0687
0.01953125,-0.1503906,0.9067383,-39.51908,-6.770992,123.3664
-0.0546875,-0.07177734,0.9350587,-6.969466,-4.770992,84.35114
-0.1738281,-0.04345703,0.9418945,-2.938931,11.45802,17.58015
-0.1064453,0.0390625,0.9086914,4.259542,-4.389313,16.85496
-0.1035156,-0.09619141,1.018066,-12.51908,-15.26718,1.70229
0.1616211,-0.09912109,0.9272461,2.305344,13.12977,26.19847
-0.1230469,-0.1132813,0.7963867,-13.32824,-3.267176,-6.717557
-0.2446289,0.09912109,1.04541,2.480916,12.80916,-80.96947
-0.09326172,-0.01953125,0.8076172,-4.206107,-13,-50.01527
-0.09228517,0.01123047,1.050781,-5.450382,16.75573,-1.503817
0.04638672,-0.03271484,0.8164063,21.64886,13.41221,2.687023
0.05126953,-0.05175781,1.12793,14.32824,23.00763,-41.53435
0.01025391,-0.05322266,0.8808594,-12.19084,4.114504,-76.1832
0.03417969,-0.1503906,1.056641,-5.854962,11.35878,-20.00763
0.1713867,-0.1430664,0.9165039,0.4198473,-15.03053,-11.77099
-0.005859375,-0.1499023,0.8325195,-21.87786,-7.145038,-18.75573
-0.1113281,-0.1333008,1.186523,25.07634,-19.54962,-17.87786
0.04882813,-0.1264648,0.8666992,1.473282,16.98473,-15.79389
0.1049805,-0.15625,1.047852,-12.55725,9.114504,35.99237
0.1254883,-0.2836914,0.8022461,-10.22137,-27.22901,83.03053
-0.004394531,-0.2041016,0.881836,27.21374,6.923664,51.61069
0.1806641,-0.046875,1.021484,14.61832,16.57252,28.19084
0.1015625,-0.1264648,0.7939454,-29.9542,-20.82443,23.87786
0.06933594,-0.2055664,1.130859,-32.79389,8.641221,35.03817
0.1176758,-0.2563477,0.8261719,10.71756,0.480916,36.82443
0.06689453,-0.2338867,0.9721681,31.56489,2.206107,13.9771
0.03808594,0.02197266,0.8266602,21.77862,6.969466,3.183206
0.08447266,-0.1767578,0.9418945,-21.07634,-7.290076,-1.549618
0.1899414,-0.3085938,1.050293,-15.32061,-3.045802,39.40458
0.08496094,-0.2231445,0.8168945,1.358779,2.870229,45.65649
0.0625,-0.03271484,1.094238,-16.72519,10.09924,-26.09924
0.07373047,-0.1010742,0.8222656,-8.038168,-6.251908,-42.72519
0.02050781,-0.1870117,0.9257813,-11.19084,9.022901,-15.84733
0.1245117,-0.1894531,0.8666992,2.603053,-2.335878,28.41985
0.06640625,-0.2456055,0.8481445,9.435115,8.854961,27.77099
0.003417969,-0.1523438,1.19873,12.94656,7.145038,-25.39695
0.01025391,-0.1748047,0.8295898,-23.50382,2.89313,-42.03053
0.02148438,-0.2202148,1.075684,-18.24427,14.03053,14.18321
0.09960938,-0.1953125,0.8261719,1.08397,-4.435114,36.16794
-0.02246094,-0.2236328,0.8544922,-2.343511,-6.526718,-10.08397
0.1655273,-0.03955078,0.8735352,18.56489,-10.39695,-52.23664
-0.03759766,-0.1704102,0.8481445,-21.85496,-17.76336,-27.24427
0.1220703,-0.3569336,1.07959,-1.251908,-13.8626,51.16031
0.08154297,-0.1694336,0.8349609,-0.8549618,16.70992,13.12977
0.004394531,-0.1313477,1.020996,5.832061,27.25191,-23.38931
-0.06982422,-0.1972656,0.9067383,-19.17557,-20.59542,32.41985
0.04931641,-0.2495117,0.8828125,11.03817,-30.19084,113.4046
0.2529297,-0.3564453,0.9506836,-26.8855,-34.05344,147.3588
0.2241211,-0.425293,0.925293,1.358779,-29.17557,131.9847
0.1450195,-0.2084961,0.9492188,-2.21374,1.251908,73.47327
0.1103516,-0.05273438,0.9624023,1.969466,-6.160306,52.9313
-0.02050781,-0.08300781,0.8476563,-11.38168,-15.32061,31.25191
0.1123047,-0.2119141,1.125,-30.63359,-11.28244,32.25954
0.08154297,-0.2353516,0.7983398,0.7175572,8.496183,35.47328
0.05566406,-0.2260742,0.9921875,26.62595,18.23664,11.96183
-0.02539062,-0.02783203,0.8164063,-29.25954,-13,4.198473
0.008300781,-0.1679688,0.8901367,-18.31298,-1.099237,7.755725
0.03125,-0.2885742,1.025879,8.053435,-1.366412,64.39695
-0.01904297,-0.2006836,0.8393555,-2.419847,6.427481,37.29771
-0.109375,-0.09082031,1.093262,0.6946565,-13.72519,-2.129771
-0.05371094,-0.1074219,0.855957,-4.541985,-7.748092,-21.54198
0.04833984,-0.237793,1.078125,-8.068703,-0.4198473,-3.969466
0.1489258,-0.2973633,0.8896484,-2.984733,9.824428,26.93893
0.04345703,-0.2460938,0.9018555,-4.740458,7.442748,-0.9465649
-0.05419922,-0.02539062,0.8100587,11.1145,-16.14504,-24.58779
0.005371094,-0.2021484,0.8735352,-20.03053,3.129771,-15.44275
0.09765625,-0.3935547,1.049316,-11.74809,-21.09924,34.47328
0.07519531,-0.2285156,0.8510742,-0.9007633,10.01527,28.69466
0.02099609,-0.1259766,1.113281,22.91603,17.57252,-39.62595
0.05419922,-0.2080078,0.8305664,-11.90076,-2.664122,-72.10686
0.03222656,-0.2636719,1.012207,-11.14504,10.80916,-16.48855
0.1762695,-0.2485352,0.9277344,-8.694656,8.496183,16.35114
0.04003906,-0.2451172,0.8955078,5.335878,14.51145,-10.59542
0.2114258,-0.06445313,0.890625,33.46565,6.290076,-58.41221
-0.02685547,-0.1201172,0.8007813,-21.35878,-0.9083969,-48.14504
0.08349609,-0.371582,1.030762,12.67176,-4.740458,26.96183
0.02832031,-0.265625,0.8105469,7.21374,12.93893,10.67939
0.03564453,-0.03076172,1.074219,12.58779,12.12977,-37.79389
0.07177734,-0.1743164,0.8803711,-5.236641,-5.114504,-63.67939
0.01269531,-0.2324219,1.018555,-5.725191,20.71756,-6.969466
0.09667969,-0.2514648,0.855957,13.62595,-0.1679389,33.01527
0.02392578,-0.2011719,0.9501953,0.6564885,12.68702,-1.557252
0.07421875,0.0078125,0.890625,13.50382,-0.8015267,-59.66412
-0.009765625,-0.1606445,0.784668,-13.73282,-9.496183,-50.66412
0.02539062,-0.1191406,1.124023,-19.81679,10.56489,-10.34351
0.03222656,-0.175293,0.8735352,3.885496,1.274809,-20
0.006835938,-0.2587891,0.9282227,5.419847,20.9313,-65.09161
0.09277344,-0.01611328,0.8696289,31.12214,32.80916,-109.6107
-0.06494141,-0.1499023,0.7910156,-8.687023,7.351145,-65.13741
0.1142578,-0.2050781,1.142578,-10.9313,-2.152672,-38
0.1806641,-0.1826172,0.9082031,-2.259542,15.31298,-46.09924
0.07666016,-0.1303711,0.9682617,2.641221,17.21374,-75.53435
0.06201172,0.05078125,0.9262695,18.12977,9.458015,-91.64122
-0.04150391,-0.1005859,0.828125,-23.65649,12.8855,-53.68702
0.1958008,-0.2670898,1.171875,-41.96947,33.64122,-13.0458
0.008789062,-0.2124023,0.8393555,9.763359,13.03053,-33.30534
-0.02783203,-0.1767578,0.9970703,43.25954,30.51145,-29.38931
0.08837891,0.015625,0.8208008,-13.78626,-9.450381,-46.53435
-0.08935547,-0.1337891,0.8574219,-19.77099,-6.564886,-25.85496
-0.02148438,-0.2700195,1.047363,-14.32061,-6.259542,12.83969
0.1245117,-0.1987305,0.9067383,23.20611,5.633588,23.14504
0.008789062,-0.2011719,0.9775391,9.221375,14.19084,3.70229
0.05029297,0.02001953,0.8598633,-15.32824,-7.59542,-19.64886
-0.01708984,-0.1323242,0.8549805,-23.0458,-7.458015,6.862596
-0.06201172,-0.3681641,1.044922,-27.0916,-34.32824,54.65649
0.078125,-0.2373047,0.855957,10.48855,-6.122138,67.21374
-0.03759766,-0.2436523,0.9858398,-3.221374,21.96183,28.1145
0.0390625,-0.03027344,0.7148438,-38.36641,-17.64122,-10.9313
0.009277344,-0.3154297,0.9624023,-18.79389,-24.51145,-35.32061
0.2724609,-0.5463867,0.8164063,21.94656,28.80916,43.43512
0.1401367,-0.4267578,0.8027344,-7.870229,-21.16031,12.1145
0.05664063,-0.440918,1.013672,-34.80153,16.70229,-36.8855
0.137207,-0.2421875,0.6972656,-5.954198,2.320611,-9.526717
0.06982422,-0.3432617,1.04248,-21.06107,7.923664,22.18321
0.1484375,-0.3476563,0.8120117,15.38931,2.633588,12.67176
0.05761719,-0.3691406,0.8837891,-21.96947,2,-12.46565
0.02783203,-0.1030273,0.8124999,44.54198,-19.60305,-6.343512
0.04638672,-0.1855469,0.8544922,-26.21374,-10.26718,-1.198473
0.01318359,-0.4282227,1.04541,-17.74809,-34.40458,9.236641
0.1166992,-0.2241211,0.8442383,17.70992,14.22137,20.85496
0.02001953,-0.1875,1.033203,2.312977,18.50382,-20.57252
0.03320313,-0.1889648,0.7949219,-0.3740458,-3.961832,-14.40458
0.02490234,-0.2607422,0.9819336,-7.832061,-5.358778,25.58015
0.06640625,-0.3408203,0.8417969,4.21374,-13.81679,28.67939
0.002441406,-0.2631836,0.8920898,12.38168,19.87786,0.129771
0.02294922,-0.02832031,0.8564453,1.725191,-5.183206,-2.061069
-0.005859375,-0.2202148,0.9228516,-20.66412,0.8396947,12.79389
0.09326172,-0.449707,0.9731445,-19.00763,-30.23664,40.54962
0.105957,-0.3447266,0.8051758,0.08396947,-7.198473,51.38168
-0.02880859,-0.1367188,0.9731445,-3.160305,13.8626,17.67939
0.01757812,-0.3046875,0.7983398,5.114504,-16.06107,52.74809
0.1337891,-0.2714844,0.9516602,-10.41985,-28.84733,81.64122
0.1918945,-0.3666992,0.8876953,0.1526718,-33.23664,119.4427
0.1826172,-0.3276367,0.9760742,25.21374,-6.389313,98.35878
0.08300781,-0.2519531,0.9887695,-3.282443,0.7557252,39.10687
0.06542969,-0.1757813,0.8852539,5.038168,-37.24427,48.38168
0.07617188,-0.15625,0.9458008,-16.90076,-6.854962,35.30534
0.2441406,-0.2636719,0.9770508,25.67175,15.43511,49.51908
0.01025391,-0.2543945,0.8227539,4.587786,-4.29771,38.49618
-0.09814453,-0.144043,1.046387,-1.854962,5.664122,-26.83206
0.04052734,-0.2011719,0.8505859,-18.85496,-2.709924,-20.73282
0.06884766,-0.199707,1.081055,-15.74046,4.59542,6.908397
0.05908203,-0.2387695,0.7885742,5.587786,-1.366412,46.87786
0.03076172,-0.2021484,0.9741211,3.877863,8.396947,3.923664
0.09960938,0.01953125,0.8789063,-24.38931,-18.16031,-21.73282
0.03417969,-0.1743164,0.8823242,-18.18321,3.145038,-0.6946565
0.2197266,-0.2666016,0.9956055,-11.29771,-17.79389,31.03817
-0.02490234,-0.3085938,0.8691406,1.78626,-3.045802,16.87023
-0.1689453,-0.2856445,1.078613,8.832061,-1.748092,-22.51145
-0.02734375,-0.1762695,0.8232422,-22.83969,-10.60305,-26.0229
0.0390625,-0.2070313,1.029785,-10.96183,11.20611,13.58779
0.1362305,-0.2568359,0.8994141,-6.08397,2.633588,6.839694
0.007324219,-0.2304688,0.9262695,11.08397,9.206107,-14.61069
0.3105469,-0.05126953,0.9414063,45.70229,13.34351,-41.37405
-0.05517578,-0.1479492,0.7822266,-39.60305,-3.900763,-10.41985
0.06689453,-0.2939453,1.15918,23.9771,1.167939,29.77099
-0.06982422,-0.1201172,0.8032227,3.740458,-1.068702,6.061068
-0.1479492,0.1298828,1.081543,23.90076,9.541985,-36.48855
-0.05419922,-0.004882812,0.8579102,5.366412,8.374045,-67.48855
-0.06005859,-0.1499023,0.9238281,-18.36641,11.1145,-32.25191
0.2099609,-0.2094727,0.953125,5.954198,-5.19084,27.9542
0.06933594,-0.2626953,0.9487305,-5.984733,16,13.83206
-0.008300781,-0.1225586,1.113281,1.21374,-0.8015267,-47.68702
0.02001953,-0.09960938,0.8193359,-23.53435,-0.02290076,-26.65649
0.109375,-0.2441406,0.9980469,-14.45802,28.29771,19.29008
0.1030273,-0.3525391,0.9013672,-6.312977,-16.77863,98.14503
0.1274414,-0.3398438,0.9360352,5.061068,-9.282443,86.61832
0.1518555,-0.09960938,1.040527,20.93893,22.69466,71.50381
0.03125,-0.06640625,0.8666992,-8.870229,-9.931298,77.51145
0.1494141,-0.1713867,1.067383,-33.55725,-19.64886,83.39695
0.1083984,-0.3305664,0.8974609,-17.48092,-10.34351,87.29008
0.1196289,-0.2729492,1.004883,24.00763,7.732825,36.27481
0.03173828,-0.02099609,0.8647461,-25.22901,-3.259542,25.38168
0.01318359,-0.1821289,0.8671875,-21.92366,-3.068702,33
0.1650391,-0.487793,1.121094,-45.49618,-20.1374,56.35115
0.1054688,-0.2509766,0.7460938,13.48092,-6.022901,71.99999
0.07226563,-0.262207,1.033203,20.89313,1.572519,24.22137
0.1074219,-0.1557617,0.8652344,-11.67176,3.954198,15.25191
0.02734375,-0.2558594,0.9658203,-15.0687,-14.17557,28.09924
0.1459961,-0.4038086,1.006836,-8.053435,-9.54962,50.9771
-0.02832031,-0.237793,0.7880859,-8.114504,-6.21374,32.32824
0.02685547,-0.2045898,1.146484,3.206107,5.267175,-32.38931
-0.046875,-0.230957,0.8134766,-8.335877,-15.12977,-17.60305
-0.009277344,-0.2446289,0.9731445,-8.587787,2.442748,14.92366
0.1391602,-0.2207031,0.934082,-19.15267,-14.87023,36.08397
-0.005859375,-0.2041016,0.8779297,16.80153,22.9084,6.290076
0.1547852,-0.07275391,0.925293,36.29771,13.08397,-25.91603
-0.000976562,-0.1796875,0.859375,-31.67939,-17.22901,-17.9542
0.08300781,-0.387207,1.140625,-5.870229,-6.396946,37.76336
0.015625,-0.1977539,0.8100587,9.801527,7.885496,22.13741
-0.05371094,0.005371094,1.031738,-2.694656,-12.36641,-38.8168
0.03613281,-0.1835938,0.8349609,-10.72519,0.6641222,-67.51908
-0.01025391,-0.2602539,0.993164,19.27481,11.83969,-9.480916
0.2373047,-0.2485352,0.9296875,-11.81679,8.641221,6.969466
0.07617188,-0.2128906,0.8950195,-14.63359,12.44275,-1.129771
0.1518555,-0.07617188,0.840332,26.01527,-8.984733,-35.94657
0.01806641,-0.190918,0.8325195,-13.37405,2.824427,-10.23664
-0.02636719,-0.3027344,1.183105,-22.29771,-38.29008,32.63359
0.04492188,-0.2416992,0.8154297,6.717557,4.656488,24.31298
-0.1972656,-0.09277344,1.053223,-15.20611,16.41985,-11.75572
-0.05664063,-0.1704102,0.8188477,-9.793892,-14.12977,-38.32824
0.168457,-0.2944336,1.074707,-23.41221,-1.343511,14.03817
0.05859375,-0.2788086,0.8188477,-6.122138,-9.320611,68.67939
0.05224609,-0.3056641,0.996582,10.61832,9.900764,24.01527
0.03515625,-0.1342773,0.8999023,-55.77099,-0.480916,6.946565
0.05322266,-0.2626953,0.8989258,-10.70992,-24.77099,52.22137
0.199707,-0.4223633,0.9130859,-19.20611,-40.90076,127.855
0.1987305,-0.4794922,0.8862305,-2.725191,-41.78626,133.6947
0.08349609,-0.3696289,0.9174805,3.854962,-25.74046,92.77863
0.005859375,-0.2636719,0.8886719,-24.01527,-14.19847,39.80916
0.1533203,-0.3120117,0.8461914,-6.152672,-19.67939,70.70992
0.1259766,-0.4658203,0.8984375,-2.580153,-13.16031,32.17557
0.3491211,-0.4780273,0.7172852,11.0916,-33.40458,36.76336
0.09667969,-0.3457031,0.7553711,37.71756,-54.01527,-12.16031
0.265625,-0.2265625,1.059082,13.66412,-6.587786,-26.91603
0.3735352,-0.1020508,1.022461,92.34351,-28.9542,-35.67939
0.04150391,0.1977539,0.9672852,-77.28244,-39.66412,27.39695
0.4677734,0.05078125,0.7460938,-10.86259,17.61832,15.51145
0.2114258,0.1044922,0.8291016,9.068703,13.18321,-14.92366
0.7788086,0.324707,0.675293,42.25191,-16.23664,3.465649
0.5063477,0.3823242,0.4550781,-52.28244,-66.56489,-23.83969
1.374023,0.3203125,0.4604492,-33.62595,-63.13741,22.12977
0.8085938,0.1572266,0.1352539,35.74046,15.14504,10.74809
0.9233398,0.1855469,0.4995117,-30.55725,-0.1679389,-23.40458
0.7104492,0.4614258,0.2109375,-12.9084,-20.9313,-28.8855
0.7832031,0.3339844,0.3725586,-8.145039,-10.46565,16.19084
1.351563,0.3779297,0.3300781,-12.51145,-5.679389,1.587786
0.8710938,0.203125,0.2929688,24.19847,4.709924,-15.49618
0.8671875,0.2753906,0.4399414,3.229008,16.48855,-7.862596
0.8530273,0.605957,0.2866211,-30.30534,-71.99999,-23.16031
0.8300781,0.3623047,0.4526367,-9.641221,14.70992,20.51908
1.007813,0.02050781,0.2324219,-24.44275,-1.748092,8.229008
0.8217773,0.0625,0.3867188,-4.335878,34.19084,-24.62595
0.8950195,0.2329102,0.7124023,-24.85496,59.44275,-27.69466
0.5424805,0.362793,0.756836,-43.0458,56.0916,-19.25191
0.2431641,0.3144531,0.840332,-11.19084,30.42748,-6.946565
0.5727539,-0.1020508,0.6210938,-19.00763,-0.09160305,59.22901
0.190918,-0.03857422,0.793457,-9.625955,-26.29771,-21.63359
0.2055664,0.08886719,1.001465,54.27481,-29.77862,-67.82442
