Ax,Ay,Az,Gx,Gy,Gz
0.6040039,-0.453125,0.7133789,-2.129771,2.328244,-5.122138
0.5986328,-0.4472656,0.671875,-2.824427,2.877863,-3.229008
0.5341797,-0.6030273,0.5249023,36.17557,11.03817,-30.71756
-0.005859375,0.02392578,0.2172852,-23.80153,-20.82443,-51.26717
-0.8588867,-0.2714844,1.113281,127.0458,250.1298,57.79389
0.7851563,-0.3378906,0.9125977,-20.85496,-63.1145,3.137405
0.6806641,0.4384766,2.515137,-60.71756,250.1298,32.87786
-0.8911133,-0.671875,1.38916,88.87023,-125.4657,19.49618
0.05175781,-0.06835938,0.02539062,46.06107,-112.0076,2.862595
0.1396484,0.1567383,-0.05224609,-66.20611,-51.9542,49.43512
0.06298828,0.05126953,0.1030273,-182.8626,-33.07634,-72.28244
-0.08886719,0.05517578,0.1269531,-10.53435,129.5802,-7.961832
0.765625,-0.1508789,0.8564453,28.18321,208.0611,77
-1.07373,-1.038574,0.2695313,3.916031,186.5649,31.51908
-0.8447266,-0.4980469,1.654785,15.80153,-144.1756,35.39695
0.1191406,-0.05615234,-0.1918945,23.32061,-143.1145,4.603054
0.04443359,-0.1533203,0.08105469,7.076336,53.87023,6.145038
0.125,0.1176758,0.2856445,-203.4809,-50.58779,-155.2137
-0.2109375,0.1064453,0.121582,-67.74809,-32.25191,45.03053
-0.02490234,0.05615234,0.8266602,-9.908397,12.86259,-0.7862596
0.5791016,0.04003906,1.690918,-2.320611,179.4198,10.35878
-1.357422,0.0009765619,1.30957,-4.671756,-127.1145,61.61832
0.05957031,0.1982422,-0.05859375,-92.8855,-249.8015,6.442748
0.09179688,0.02099609,0.08593751,-81.58015,-94.09924,135.7023
-0.2880859,-6.664551,-1.479492,197.7328,250.1298,-248.1832
0.04150391,0.1279297,0.05322266,-95.13741,-248.1832,-106.1298
0.04248047,-0.1308594,0.9599609,11.63359,47.22137,3.343511
0.2509766,-0.1396484,0.9394531,-2.59542,1.732824,-1.007634
-0.6005859,-0.4375,1.533691,-132.145,248.8015,-108.6794
-0.5302734,-0.4404297,0.4389648,69.19847,-102.7023,-111.1985
0.3046875,-0.2714844,-0.7915039,60.71756,-166.2443,250.1298
0.01318359,-0.02392578,0.09228517,-218.6488,-248.1832,207.4962
3.63916,1.444336,-3.091309,-235.3282,-248.1832,-248.1832
0.1000977,-0.1430664,-0.7421875,12.29008,129.9084,-10.80916
0.4125977,0.06445313,-0.9321289,-28.16031,-16.64122,-7.748092
1.82666,-0.002929688,-0.5249023,99.22137,-188.7099,43.75573
0.2207031,-0.04150391,0.01318359,-80.03817,-139.2901,8.221375
0.1186523,0.08056641,-0.1118164,157.6565,-0.961832,-187.3588
0.1381836,-0.03369141,-0.1796875,-25.54198,61.33588,-93.60305
1.529297,0.2226563,-0.2539063,4.030534,-78.39695,-94.9542
1.017578,-0.01464844,-0.1176758,-1.259542,35.76336,-0.9236641
0.65625,0.6499023,-0.1586914,4.664122,48.70992,-30.9542
-0.1333008,-0.03027344,0.4506836,27.25191,-102.0076,-0.480916
0.4082031,-0.7397461,1.623535,-190.1832,127.6718,-9.251908
-0.1767578,-0.1235352,0.3422852,-84.64886,-142.1374,-30.15267
0.2299805,0.02392578,-0.2050781,111.6565,-44.16794,100.3282
-0.004882812,0.02539062,0.2294922,-130.9771,-20.06107,-15.25191
-1.375,0.7148438,-0.1757813,3.618321,250.1298,133
0.2807617,-0.4306641,3.237793,-87.17558,-248.1832,-18.01527
-0.04882813,-0.003417969,0.9414063,-6.167939,-51.08397,-5.931298
-0.2241211,-0.1474609,0.8291016,-38.53435,-44.78626,0.519084
-0.05517578,0.1425781,1.148926,32.54962,138.8321,-57.01527
-2.362793,-0.3852539,1.752441,45.65649,-1.534351,106.4962
-0.1777344,0.02148438,-0.3891602,-120.2061,-198.2748,-28.75573
-0.05908203,-0.4970703,-0.04882813,50.94656,47.38168,188.7939
0.03369141,0.03466797,0.2319336,-175.2061,-8.732824,-117.2901
0.7001953,-0.03076172,-0.4638672,129.9008,250.1298,223.771
0.4038086,-0.2026367,0.9204102,55.28244,-248.1832,-5.801527
0.2250977,-0.09521483,0.9863281,-15.32061,-16.73282,-1.145038
-0.4389648,-0.08349609,1.70459,-41.38168,250.1298,-23.87786
-0.5205078,-0.1547852,0.7675781,-7.717557,-65.9313,-23.42748
0.05419922,-0.05810547,0.5444336,23.37405,-27.78626,-3.167939
-0.08447266,0.1088867,0.1635742,-114.3435,22.14504,139.2977
0.1430664,0.05419922,0.1015625,-157.1527,-98.20611,-2.954198
-0.2226563,0.1918945,0.02978516,-65.96183,166.3588,-25.87786
0.6459961,-0.01025391,0.4130859,1.351145,-3.946565,8.320611
0.6689454,-0.002441406,0.9755859,-5.175572,73.9313,5.137404
-1.210449,-0.2280273,1.34082,-14.22137,113.1069,-60.54962
-0.359375,-0.1459961,0.3828125,-14.03053,-139.5573,-9.274809
0.1894531,-0.2319336,0.4477539,-37.19084,3.603053,15.0458
-0.03271484,0.01416016,0.3149414,42.9313,-103.7328,21.22137
0.2358398,0.0078125,0.1479492,-171.6794,-14.70229,-101.4733
-0.3598633,0.2963867,-0.2573242,-152.0534,250.1298,-46.05344
0.06787109,0.2001953,-0.6977539,-55.89313,250.1298,107.2748
0.2255859,0.1630859,-0.9584961,-11.51908,-0.7862596,-3.793893
0.8408203,0.03613281,-1.294434,39.91603,250.1298,123.4885
1.004395,-0.4853516,-1.243164,12.32824,-202.3512,-2.465649
0.046875,-0.1083984,-0.206543,-53.49618,-94.90076,7.580153
-0.4814453,-0.05371094,-0.2983398,9.244275,39.67939,-13.44275
0.06835938,0.1352539,-0.2421875,250.1298,-78.48092,68.90839
1.291016,1.38916,-3.147461,-248.1832,-248.1832,-248.1832
-0.9960938,0.2387695,-0.5219727,48.00763,220.2443,-74.1145
0.06591797,0.1875,-1.154785,-50.94656,-0.6412214,-7.671756
0.1191406,0.1171875,-1.003418,-3.198473,0.09160305,-1.114504
-0.7368164,0.3964844,0.01220703,-33.63359,-248.1832,-52.31298
-1.650879,-0.3085938,-0.1689453,-41.22901,-248.1832,-146.0687
-0.1992188,-0.09814453,0.3344727,57.32824,-141.2061,29.28244
0.4487305,-0.006347656,0.2114258,-8.389313,143.8168,-13.0916
0.09765625,0.02880859,0.2573242,-132.0382,-248.1832,-100.0458
-0.2036133,0.1044922,0.3818359,111.6641,197.2366,82.48855
-0.1777344,-0.3310547,0.8989258,61.22901,-38.29008,2.931298
0.2246094,-0.09863281,0.9858398,7.374046,-8.763359,-4.366412
0.02001953,0.3720703,0.8725586,-61.04581,193.4351,15.0458
-0.9760742,-0.4541016,1.73291,-31.63359,-242.1679,43.06107
-0.1713867,-0.2631836,-0.2260742,-17.35114,-74.50381,9.343512
-0.01660156,0.02783203,0.1611328,1.40458,-17.87023,53.14504
0.06445313,0.05029297,0.1669922,-185.7252,79.1832,-236.2748
-0.05273438,0.06884766,0.05273438,-49.0916,137.2672,-111.9771
1.140625,0.1806641,1.806641,-99.73283,-149.1603,-3.114504
0.09570313,-0.1005859,0.9985352,-14.19084,-58.67939,-4.442748
0.2797852,-0.1240234,0.8364258,-20.92366,-122.0992,9.992367
-0.5864258,-0.171875,1.145996,-173.9389,246.4657,69.90839
-1.066895,-0.05078125,1.04248,-95.99236,-184.4427,8.167939
0.2436523,-0.1835938,-0.07373047,22.70229,-99.41222,21.89313
-0.1933594,-0.08349609,0.2675781,-17.05343,163.6336,42.0687
0.2392578,-0.7148438,-0.05273438,250.1298,250.1298,-248.1832
-0.5263672,0.006347656,1.015625,-169.2901,-248.1832,-72.00764
0.4233398,-0.05029297,0.9960938,-6.778626,-8.877863,-0.9770992
0.2851563,-0.0078125,0.9755859,1.832061,11.93893,0.3053435
0.394043,0.02685547,0.8735352,7.366412,-32.36641,3.282443
0.175293,0.140625,1.162598,36.96947,22.48855,-5.61832
-0.8383789,-0.04785156,1.671387,-118.0229,-44.0687,-51.87023
0.1269531,-0.1132813,0.1635742,-68.0458,-84.17558,-16.0687
0.06835938,0.21875,-0.02246094,-36.08397,-144.5802,134.7481
0.08056641,0.04296875,0.1147461,-168.7939,39.03053,-149.9924
-0.3237305,0.2172852,0.4741211,-39.68702,250.1298,24.53435
0.4946289,-0.02734375,0.4243164,16.33588,20.48092,17.18321
0.4116211,-0.07861328,0.9711914,-6.320611,25.13741,1.435114
0.3310547,-0.1083984,0.9379883,-2.053435,15.41985,2.648855
-0.1923828,-0.1572266,0.7055664,14.08397,188.2824,16.89313
-0.7250977,-0.6235352,1.435547,-68.73283,-52.61832,10.21374
-0.2182617,-0.296875,0.6118164,-76.52672,-99.68702,-45.23664
0.5053711,-0.472168,-0.8774414,-1.618321,-226.6565,34.46565
0.06445313,0.03320313,0.1484375,-155.6794,161.0992,-64.87786
-3.904297,1.179688,0.5219727,140.8092,98.65649,250.1298
-0.1279297,-0.06054688,0.6826172,-31.69466,-20.61069,-7.847328
-0.02441406,-0.1420898,0.9833984,-2.984733,-0.4885496,-1.114504
0.1542969,0.07910156,1.188965,-61.45038,78.30534,-7.557252
-0.1220703,-0.1606445,1.248047,-46.61832,87.64122,61.09924
-0.4277344,-1.147949,0.9775391,-123.1756,-57.0458,-28.93893
-0.3134766,-0.7348633,0.4233398,8.847328,-37.27481,-101.916
0.09033203,0.2094727,-0.3745117,214.6107,-244.9008,84.68702
0.01708984,-0.01025391,0.2397461,-102.1145,56.32825,-55.67939
-1.170898,0.2319336,0.1020508,-25.8855,250.1298,-18.48855
-0.8686523,-0.1455078,0.07177734,41.66412,-198.6183,1.045802
-0.265625,-0.1210938,0.5629883,-29.70229,-11.38168,-6.206107
0.01757812,-0.1206055,1.072754,-18.85496,88.09161,49.56488
-0.6831055,-1.072266,0.9594727,-75.7252,-105.0382,17.19847
0.1538086,-0.581543,0.7529297,-35.1832,-162.6488,-16.78626
0.4013672,-0.2724609,0.5131836,33.83969,-3.717557,13.67176
0.230957,-0.4887695,-0.09033203,17.0687,-22.22901,83.00764
0.06542969,0.06201172,0.2280273,-70.74046,-16.0916,-55.57252
0.1591797,-0.5361328,4.014648,250.1298,49.41221,-2.664122
1.373535,-0.4868164,1.620605,-129.9542,115.374,28.12977
0.1577148,0.01513672,1.014648,-3.587786,2.977099,-2.007634
0.1357422,0.09472656,1.035156,-7.274809,-84.73283,12.49618
-0.2045898,-0.04833984,1.530762,-163.5954,250.1298,40.58779
-1.26709,0.09912109,0.9282227,-78.17558,-131.7252,-42.67176
0.2871094,0.3217773,0.1362305,-61.68702,-88.01527,40.41985
0.04443359,0.05224609,0.184082,22.50382,-94.1832,-39.17557
0.005371094,-0.1499023,0.6113281,51.51908,250.1298,-104.9389
-1.144043,-0.2827148,0.6279297,-56.15267,-248.1832,-61.10687
0.1513672,-0.144043,1.054688,2.167939,-47.44275,-5.099236
0.2729492,-0.06591797,0.7646484,3.51145,-32.91603,-7.351145
-0.5976563,-0.4282227,0.9033203,-182.2214,201.7786,123.3969
-0.7036133,-0.04980469,1.331543,-82.21374,-86.67939,18.89313
0.05664063,-0.2045898,0.2192383,-26.99237,-81.03817,-25.53435
0.2783203,-0.4946289,-0.08642578,-23.19847,-28.98473,68.74046
0.0390625,0.03076172,0.1738281,-83.03817,10.49618,-91.73283
0.1484375,0.0390625,0.1083984,200.0076,164.4809,105.4885
0.3095703,-0.1264648,0.4199219,34.72519,58.93893,16.74809
-0.3671875,0.2226563,0.04345703,51.22137,-160.1221,-39.32061
-0.03125,-0.2495117,1.39502,-89.51145,120.2214,40.20611
-0.6835938,-0.1147461,1.42627,-133.2748,-175.3359,29.26718
-0.1523438,-0.2543945,0.1333008,-123.0305,-46.50382,-25.91603
0.1835938,-0.631836,0.01220703,15.06107,-26.22138,-23.29008
-0.05371094,0.03417969,0.2539063,19.29008,38.48092,-75.38931
-0.06884766,-0.09667969,0.8007813,164.6947,152.5725,-94.78626
0.5424805,-0.2666016,1.960938,-179.9924,-217.6947,-1.229008
0.4135742,-0.1162109,1.151855,7.687023,62.51908,16.70992
-0.3769531,0.1469727,0.5722656,-6.671756,-50.72519,-38.60305
-1.310059,-0.08544922,2.579101,-57.46565,250.1298,54.48855
-0.8764648,0.1943359,0.472168,-136.916,-242.4275,-73.91603
0.1015625,0.05419922,-0.04882813,-4.206107,-248.1832,-60.36641
0.1567383,-0.03076172,0.004394531,-93.33588,250.1298,-60.55725
-0.1889648,-0.05029297,0.2895508,-4.877862,129.0763,43.62595
0.1074219,-0.1694336,1.016602,-1.374046,9.358779,-0.4274809
0.07763672,-0.1635742,0.9628906,-3.320611,-0.7251908,-1.038168
-0.6342773,-0.5732422,0.8608398,-149.4427,109.1756,73.9771
-0.7578125,-0.2246094,0.6757813,-108.7099,-221.3664,-19.49618
-0.1103516,-0.3852539,0.3164063,38.12977,-72.61069,16.8855
0.04882813,0.04833984,0.1108398,-68.41985,-80.83206,89.39695
0.01757812,-0.0625,0.3666992,79.09924,153.8702,-134.7176
-0.3081055,0.2036133,0.4335938,-128.8397,-186.6718,-92.70229
0.2119141,-0.1767578,0.9414063,-6.38168,-18.06107,-1.610687
0.005859375,-0.2836914,1.115234,-36.49618,250.1298,43.35115
-0.6801758,-0.940918,1.577637,-52.45802,-13.25191,7.931298
-0.2358398,-0.1699219,0.2763672,-40.25954,-71.06106,-47.07634
0.02539062,0.1298828,0.09814453,50.05344,-47.00763,109.4809
0.06054688,0,0.152832,-111.1756,54.34351,-196.1527
-0.1328125,0.07080078,0.1225586,27.26718,75.54962,-70.63358
0.04394531,-0.2197266,1.110352,19.48855,50.16031,24.58779
0.3164063,0.001464844,0.769043,1.038168,-29.61832,-14.67176
-0.8369141,-1.034668,1.955566,-38.12214,-215.6718,48.61069
-0.4824219,0.1196289,0.3168945,-190.1679,-151.7176,-35.48092
0.05810547,-0.3071289,0.06347656,-0.1068702,-75.38168,84.29008
0.03173828,0.03466797,0.2089844,-76.0687,83.32061,-126.2366
-0.199707,0.1508789,0.3330078,60.75573,152.9695,22.1145
0.3183594,-0.08300781,0.9458008,-17.56489,6.412214,6.900764
1.432617,0.1728516,0.6206055,4.251908,-64.62595,3.061069
-0.6430664,-0.4257813,1.395508,-244.5496,250.1298,95.0458
-0.7646484,-0.3110352,0.8432617,-99.83969,-112.4198,-49.25191
0.2255859,-0.3447266,0.3754883,53.52672,-103.1756,51.70229
0.03417969,0.03417969,0.1079102,-24.12214,-29.73282,52.35878
0.1098633,-0.04736328,0.3149414,15.0229,250.1298,-179.9389
-0.078125,0.1264648,0.2016602,-75.96947,-75.00764,5.900764
0.2524414,-0.234375,1.030273,-13.40458,-2.419847,0.3740458
0.2055664,-0.1669922,0.7763672,-5.854962,-41.09924,-4.572519
-0.2099609,-0.4072266,1.16748,-27.9084,144.2977,76.64886
-0.7290039,-0.05078125,1.274902,-72.771,-148.4504,25.19084
0.009277344,-0.1811523,0.2685547,-38.39695,-127.855,-14.48092
0.07763672,0.046875,0.09179688,-36.92366,-82.16794,120.7634
0.07421875,-0.01416016,0.1157227,-90.0458,115.3893,-94.63359
0.06152344,0.05273438,-0.04052734,80.58778,250.1298,222.7863
-0.1176758,-0.2104492,0.7592773,-118.3282,-74.60305,20.32061
-0.5664063,-0.3408203,0.7045898,-5.717557,-11.79389,-3.091603
-0.7104492,-0.8183594,1.072266,100.5802,-83.78626,92.16031
-1.178711,0.4741211,1.27832,-147.0916,-182.8321,-74.98473
-0.1723633,-0.1347656,-0.2460938,-70.16794,-187.8702,25.10687
0.09375,-0.003417969,0.05322266,-134.4198,55.24427,10.78626
5.933105,-5.250977,9.796875,250.1298,250.1298,0.8549618
-0.5283203,-0.6411133,2.366699,-127.2061,-248.1832,-25.27481
0.2670898,-0.2011719,0.9638672,0.3969466,-10.74046,-1.099237
0.1928711,-0.2021484,0.9472656,3.458015,105.9084,12.0916
-0.8144531,-1.041016,1.750488,-18.87786,-141.3512,-36.83206
-0.02197266,0.03710938,0.2895508,-8.488549,-83.90839,-9.839695
0.01025391,0.159668,0.112793,-39.19084,-37.07634,170.4427
0.078125,0.01660156,0.2045898,-53.75573,74.27481,-214.4733
-0.3588867,0.09912109,0.06054688,-0.3358779,191.458,-41.22137
0.6132813,-0.3154297,0.1489258,-1.305344,1.122137,39.96183
1.22168,-0.1655273,1.22998,12.89313,170.5114,44.42748
-1.147461,-0.4282227,1.554199,12.29771,-139.3282,58.50382
-0.2553711,0.002929688,0.1889648,1.603053,-79.63359,-6.412214
0.4047852,-0.2739258,0.262207,-36.35878,62.9313,7.137404
-0.04394531,-0.01269531,0.1303711,-148.8626,-248.1832,63.76336
-1.42041,-9.34082,-3.104492,-191.6565,220.3969,-248.1832
1.939453,0.8217773,-0.2919922,8.389313,-204.229,250.1298
1.22168,0.01074219,-0.4799805,30.47328,-84.61069,53.41221
0.7929688,0.08544922,-0.5385742,-1.78626,13.92366,20.67939
0.9008789,-0.02636719,-0.215332,-4.274809,250.1298,30.66412
-1.361816,0.5610352,1.821289,-248.1832,206.4504,-106.5954
-0.06494141,-0.2314453,1.510742,-17.62595,124,-3.396947
-1.01709,-0.2788086,0.7963867,-1.221374,-201.0687,-46.62595
0.2114258,-0.07519531,0.2880859,19.36641,-30.01527,0.4427481
-0.03955078,0.2519531,-0.03808594,-81.32061,103.7176,188.8397
0.02783203,0.02929688,0.2133789,-169.1298,-143.687,-32.43512
-0.08203125,0.05761719,0.06396484,-2.473282,144.8092,-53.65649
0.7036133,-0.1748047,0.8325195,29.54198,137.3282,40.94656
0.2666016,-0.06152344,0.9804688,-4.183206,-0.8396947,-1.068702
0.2333984,0.02441406,0.8369141,25.90076,73.9542,-1.648855
-1.180664,-0.6474609,1.255371,-139.6183,39.14504,-137.3664
-0.2939453,-0.03173828,0.02246094,120.374,-191.2595,-47.26717
0.4243164,-0.4008789,0.3647461,-118.9313,9.282443,-33.59542
-0.05322266,0.04785156,0.1494141,-33.61069,-98.1145,24.55725
0.1928711,-0.09472656,0.5292969,-3.694656,250.1298,-70.19084
-1.34375,-0.1938477,0.6259766,-84.771,-248.1832,-62.38931
0.1074219,-0.08740234,1.026367,-26.38168,-15.8626,0.05343511
0.02978516,-0.09667969,0.8710938,-6.274809,-19.64122,-2.564886
-0.8017578,-0.5263672,1.484863,-3.389313,145.4733,-26.67175
-1.42041,-0.2114258,0.9790039,-46.32061,-134.5496,-41.00763
0.284668,-0.000488281,0.1977539,58.60305,-59.57252,14.42748
0.4741211,-0.3085938,0.6469727,13.43511,31.65649,15.89313
-0.1733398,0.07177734,0.05810547,-102.4427,-106.9695,64.49619
0.1474609,-0.09082031,0.4257813,101.5725,250.1298,16.32061
-0.02783203,0.2543945,0.2456055,-121.9695,-199.6336,-31.09924
0.06201172,-0.1669922,0.918457,-22.83969,-50.60305,3.709924
0.2490234,-0.1787109,0.9555664,-3.694656,0.5572519,-0.832061
-1.370605,-0.8583984,1.494629,-118.6947,47.25191,-87.52672
-0.5136719,-0.09765625,0.4472656,51.9771,-158.1756,-55.05344
0.3632813,-0.08056641,0.3334961,-127.1069,-20.05343,50.55725
-0.02734375,-0.01660156,0.2397461,29.90076,-1.824428,93.49619
0.1367188,-0.003417969,0.03759766,-248.1832,-216.1603,-124.7863
0.3891602,0.04785156,0.1425781,186.8779,250.1298,-177.2596
0.8183594,-0.5268555,0.3378906,-105.5191,227.374,-57.74809
0.6347656,-0.01855469,0.8461914,-8.603053,104.2595,-60.12214
1.476563,0.06591797,1.165527,-10.00763,40.0458,-0.2900764
-0.1201172,0.01269531,0.03369141,52.90076,-3.229008,52.74046
1.245117,0.1938477,1.435059,-47.1832,138.1145,48.8168
-1.231934,-0.59375,1.40332,-95.41985,-154.1374,-9.389313
-0.4672852,-0.1318359,0.265625,31.9313,-110.9771,-74.33588
0.2734375,-0.2255859,0.5996093,16.98473,-71.41222,11.93893
0.5864258,-0.1523438,0.4013672,-6.572519,30.74809,16.83206
-0.1083984,0.02539062,0.1821289,-102.1679,-248.1832,-14.57252
0.5083008,-9.58252,-0.02246094,250.1298,250.1298,-248.1832
-0.5952148,-0.5615234,1.64209,-69.32825,-248.1832,-23.38168
0.09179688,-0.08593751,0.9570313,-15.32061,-25.8855,-4.114504
0.1586914,-0.1293945,0.9916992,9.610687,103.4504,12.64122
0.004882812,-0.1650391,2.072754,-23.40458,250.1298,15.19084
-1.116699,-0.5932617,0.6894531,-30.21374,-156.1832,-80.771
0.2094727,-0.06835938,0.1547852,53.17557,-112.6641,-24.90076
0.6943359,-0.01757812,0.01416016,-99.09924,41.93893,60.38168
0.04248047,-0.01269531,0.1401367,-98.42748,-243.0534,-39.0687
-0.8852539,1.322266,0.3027344,5.244275,250.1298,106.771
0.3569336,0.1791992,1.633301,37.1145,-248.1832,-16.32825
0.3105469,-0.1845703,0.9462891,0.1145038,-5.70229,-1.305344
0.2919922,-0.02246094,1.129883,12.57252,54.58779,3.427481
-0.2734375,-0.1733398,1.166504,-62.9542,250.1298,12.20611
-0.7387695,-0.5820313,1.171387,-7.328244,-128.9924,-50.83206
0.01074219,-0.1064453,0.480957,41.27481,-68.8855,-11.01527
0.4350586,-0.2539063,0.5219727,-13.64886,-56.03817,16.15267
-0.1005859,0.02050781,0.175293,-41.15267,-6.664122,146.458
0.190918,0.005859375,0.06738281,-165.1527,-38.41985,-61.21374
-0.3242188,0.1728516,-0.001464844,-62.67939,236.4046,-60.71756
1.299805,0.2675781,2.642578,-197.7176,-248.1832,17.0687
0.08837891,-0.1147461,0.9394531,-9.59542,-41.00763,-3.778626
0.1835938,-0.1674805,1.019043,-4.549618,-5.465649,-1.343511
-0.7495117,-0.4799805,1.368164,-125.8092,2.687023,-12.84733
-0.621582,-0.4711914,1.004883,29.20611,-145.0305,-59.42748
0.2719727,-0.07373047,0.2578125,46.12977,-40.05344,23.63359
-0.07226563,0.04589844,0.171875,-125.1603,8.664123,189.6794
0.152832,0.003417969,0.1098633,-90.07633,116.4504,-101.5878
-0.5576172,0.1655273,-0.07568359,-37.54198,250.1298,-58.92366
-0.2148438,-0.1274414,0.2866211,84.83206,-248.1832,-6.48855
0.1176758,0.05957031,1.11377,5.534351,10.53435,4.183206
-0.09472656,-0.06884766,1.320313,-36.41221,250.1298,24.63359
-0.8413086,-0.4125977,1.350098,-16.0229,-152.8015,-53.72519
0.005859375,-0.09912109,0.5112305,34.38168,-122.4122,-12.87786
0.6948242,-0.1157227,0.04003906,-40.25191,14.74046,38.62595
-0.05371094,0.01123047,0.1308594,-121.9924,-125.229,19.50382
10.44922,-7.179688,10.88086,250.1298,250.1298,-248.1832
-0.8969727,-0.02539062,-0.3486328,-75.68702,12.32061,-6.70229
-0.03320313,-0.05322266,0.4516602,131.6183,-248.1832,12.89313
-0.04443359,-0.2587891,1.132813,7.389313,17.08397,0.610687
-0.3637695,-0.06201172,1.46875,-27.48855,167.0916,3.70229
-0.6811523,-0.1616211,1.353516,-9.358779,-150.9847,-8.030535
-0.04931641,-0.09521483,0.637207,-21.37405,-92.229,-10.45802
0.8647461,-0.2143555,-0.1381836,-14.0687,120.6794,69.10688
0.03222656,0.02929688,0.2060547,-149.0534,-183.3817,-52.38168
-0.4594727,0.2265625,-0.4199219,52.03817,250.1298,102.1985
0.3979492,-0.1323242,0.3232422,8.358779,-50.93893,41.77099
0.3212891,-0.1665039,0.9775391,-3.030534,-0.8015267,-0.6259542
-0.02001953,-0.1289063,1.023438,43.82443,250.1298,32.52672
-0.7836914,-0.4853516,1.069336,9.389313,-169.5802,-54.85496
0.1621094,-0.05859375,0.40625,52.82443,-70.55725,15.64886
0.5888672,-0.1196289,0.4257813,-8.320611,-13.83969,5.167939
-0.1308594,0.05419922,0.07324219,-101.8092,-106.9237,107.0611
0.1904297,-0.08593751,0.487793,129.0611,250.1298,-79.64122
-1.469727,-0.1533203,0.387207,-38.87023,-248.1832,-56.45038
0.004882812,-0.05224609,0.7944336,2.335878,8.450381,2.290076
0.3032227,-0.1586914,0.9482422,-3.229008,-0.1603054,-1.030534
0.3554688,-0.2866211,1.154297,49.60305,192.4351,39.29008
-0.7939454,-0.8657228,1.255371,-85.06107,-86.54198,-38.79389
-0.006835938,-0.1777344,0.2895508,63.69466,-65.75572,-58.69466
0.5444336,-0.1918945,0.362793,-19.22137,-37.12977,12.22901
0.02880859,0.04345703,0.1254883,-26.59542,55.66412,236.1985
0.05078125,-0.02197266,0.2514648,-143.6107,-126.8244,-4.847328
-0.9150391,0.5722656,0.1450195,10.74046,250.1298,111.2519
0.02734375,-0.3007813,0.578125,48.37405,-248.1832,-64.74809
0.2236328,-0.1625977,0.9335938,-12.0229,-32.0916,-3.29771
0.2895508,-0.2084961,0.9331055,-3.229008,-1.206107,-1.137405
0.01904297,-0.1323242,1.290039,25.58779,242.9008,37.67176
-0.7783203,-0.5019531,1.287598,16.72519,-61.0916,-45.8626
-0.09765625,-0.2612305,0.5537109,30.1145,-107.6412,-67.83969
0.3666992,-0.03027344,0.1455078,-6.10687,-35.45038,78.09924
-0.1674805,0.03173828,0.1523438,-67.62595,28.86259,42.68703
0.05126953,-0.01416016,0.4765625,11.34351,149.9847,-67.70229
-0.3388672,0.3764648,0.2524414,-82.83206,-238.0382,-54.19848
0.1328125,-0.04296875,1.145996,-20.91603,-37.16031,1.923664
0.1362305,-0.08447266,0.9921875,-4.458015,1.717557,-0.6030535
-0.09570313,-0.1474609,1.022461,14.1145,33.27481,2.351145
-0.02099609,-0.0546875,0.9028319,-3.587786,26.0229,0.3129771
-0.9277344,0.4277344,1.110352,-25.89313,125.8397,-221.4962
-0.7285156,-0.4804688,0.9599609,9.343512,-175.5191,-28.0916
0.2001953,-0.121582,0.2963867,68.45038,-131.5954,-16.19847
0.3007813,-0.515625,-0.4038086,-73.32825,143.771,108.1298
0.02636719,0.07080078,0.3364258,-63.79389,17.08397,-67.62595
-0.06152344,0.1289063,0.1845703,55.55725,182.2672,90.59542
0.1455078,0.0390625,0.8442383,-15.87786,15.68702,4.732825
-0.300293,-0.2612305,0.9228516,21.27481,-77.72519,26.73282
1.960449,0.625,5.387695,-181.1374,250.1298,4.610687
-0.7241211,-0.2338867,1.34668,-5.748092,-115.6107,-10.39695
0.2211914,-0.215332,0.1943359,-1.045802,-82.23664,-5.137404
0.5014648,-0.2661133,0.5996093,-31.96183,-22.9542,25.45802
-0.02441406,0.0546875,0.1147461,-37.1832,-148.6107,132.3053
0.2138672,-0.04785156,0.3754883,45.1832,250.1298,-170.2824
-0.3120117,0.1674805,0.06054688,-65.61832,-147.5649,-125.3435
0.7192383,-0.1894531,1.062012,-40.17557,225.4427,30.64886
0.28125,-0.1831055,0.9360352,-4.091603,-26.92366,-2.335878
0.1767578,-0.6474609,1.728027,-36.74809,198.771,95.85497
-0.2358398,-0.1499023,1.112793,-141.6718,-147.8168,28.32825
0.2543945,-0.2915039,0.01464844,3.885496,-57.63359,-12.46565
-0.0009765619,-0.2539063,-0.4614258,62.12977,-248.1832,128.0153
0.09033203,-0.003417969,-0.04736328,-162.3206,176.4733,-69.53436
0.1206055,0.02392578,0.03955078,153.9084,250.1298,-82.46565
0.9633789,0.05322266,-0.2817383,-5.183206,-82.0458,-8.297709
0.9643555,0.08251953,-0.3007813,-4.51145,20.75573,0.0610687
1.433105,0.2226563,0.01611328,-61.77863,-63.27481,10.42748
1.280273,-0.206543,-0.6606445,9.992367,-136.8855,43.72519
0.2792969,-0.1621094,-0.2568359,4.427481,-88.65649,27.59542
0.006835938,-0.03173828,-0.1293945,148.4275,250.1298,-55.47328
0.07128906,0.08691406,0.324707,-107.3435,250.1298,-239.6488
-0.796875,0.09814453,0.1342773,-34.68703,-174.5725,-61.77099
0.2392578,-0.1650391,1.140137,-4.114504,172.6031,14.80153
0.2109375,-0.1386719,0.96875,-2.442748,-6.259542,-1.572519
-0.1665039,-0.04638672,0.8964844,18.67939,49.70992,10.19847
-0.4013672,-0.06933594,1.884277,-248.1832,147.0687,53.06107
-0.5810546,-0.6738281,0.6918945,-143,-202.7328,-79.87023
0.2783203,-0.1933594,-0.1357422,96.9313,-47.27481,-46.76336
-0.001464844,0.02880859,0.1054688,-54.90076,-32.9084,52.8168
0.06640625,-0.1523438,0.2338867,110.2595,224.6641,-130.2595
-0.6582031,-0.2924805,0.4902344,-11.91603,-248.1832,-44.8855
-0.1352539,-0.1274414,0.9765625,-3.992366,-1.862595,-1.175573
-0.1030273,-0.1630859,1.015625,-0.4198473,0.7709923,-0.961832
0.08642578,-0.1479492,1.068848,-18.89313,-21.17557,93.41222
0.046875,-0.6777344,1.438477,-83.40458,-118.9466,4.099236
0.06542969,-0.5117188,0.4912109,-37.91603,-91.50381,-41.62595
0.4750977,-0.07910156,-0.02001953,72.1145,-87.57252,33.98473
-0.3208008,-0.2011719,-0.6518555,72.40458,-139.5802,48.70229
0.2431641,0.1699219,0.5146484,-27.49618,250.1298,-248.1832
-0.5292969,0.3178711,0.300293,-70.48855,-248.1832,-63.94656
-0.1518555,-0.02734375,0.7705078,8.748092,-4.900764,5.717557
0.1806641,-0.09570313,0.9775391,-4.38168,-1.664122,-1.007634
-0.2148438,-0.06982422,0.8916016,15.72519,70.92367,-13.08397
-0.2607422,-0.2963867,1.477051,97.26717,-32.34351,61.90076
-0.2172852,-0.03369141,1.00293,-135.9237,-110.5191,18.78626
0.1674805,-0.3046875,0.4624023,-35.64885,-42.38931,10.68702
0.004394531,0.3378906,0.08496094,-56.25954,-39.93893,182.4809
0.06298828,0.03515625,0.1044922,-165.8397,58.07634,-107.5038
-1.244629,0.4746094,0.1591797,29.73282,250.1298,27.1145
0.878418,-0.2861328,0.5385742,-5.244275,-26.29771,34.68703
0.2138672,-0.1713867,0.9833984,-1.099237,-1.351145,-1.633588
0.2543945,-0.1474609,0.9926758,-3.152672,4.717557,-1.022901
-0.230957,-0.3476563,0.949707,-14.19847,142.4504,82.06107
-0.6557617,-0.6416016,1.242676,-124.1221,-81.98473,-41.1145
0.1430664,-0.2583008,0.3706055,-21.60305,-79.53435,-1.450382
0.3540039,-0.390625,-0.2480469,16.69466,-35.00763,66.30534
-0.02783203,0.02099609,0.3305664,-104.0153,113.7863,-124.145
8.114258,-1.400391,12.40869,250.1298,250.1298,49.83969
1.130859,-0.7670898,2.77832,-63.54198,-165.4809,-26.45802
0.1552734,-0.1416016,0.9746093,-3.175573,3.396947,-0.7328244
0.1733398,-0.1518555,0.9716797,-2.480916,0.4122138,-0.9389313
-0.203125,-0.1450195,0.4692383,-27.8855,41.54198,45.19847
-0.05517578,-1.416504,1.317871,-87.85497,-86.63358,28.61069
-0.09082031,-0.7827148,0.7636719,-57.32061,-76.00764,-108.5649
0.3173828,-0.1445313,-0.1357422,85.87786,-29.30534,87.00764
-0.05322266,-0.6103516,-0.3598633,110.2824,8.908397,7.526718
0.008300781,0.05126953,0.3510742,-83.52672,66.19847,-225.3206
-0.206543,0.07470703,0.2744141,101.5878,250.1298,164.1527
0.08203125,-0.1542969,1.190918,-4.755725,119.6565,7.70229
0.1074219,-0.1323242,0.9794922,-2.526718,0.3664122,-1.137405
-0.3144531,-0.06445313,0.5444336,-0.7099237,35.08397,3.877863
-0.7612305,-0.6884766,1.191406,11.48855,-117.9084,77.16031
-0.2700195,-0.1103516,0.675293,-52.67939,-248.1832,-18.69466
0.4379883,-0.1572266,-0.04638672,52.15267,-89.34351,13.39695
0.05273438,0.008789062,0.05859375,-37.61832,53.0229,94.03817
6.665527,0.8173828,7.044434,250.1298,250.1298,-3.435114
0.03710938,-0.2583008,0.3305664,-18.51908,-248.1832,-56.66412
0.1640625,-0.1259766,0.878418,-8.320611,-24.67939,-2.580153
0.08056641,-0.3959961,0.737793,6.717557,138.458,7.358778
-0.6074219,-0.7749023,1.310547,-81.0458,-59.75573,-24.33588
-0.1855469,-0.4257813,0.4375,-73.08397,-108.5267,-67.56489
0.1181641,-0.2089844,-0.07861328,39.42748,-45.29008,122.9695
0.04052734,0.04785156,0.1933594,-133.0382,98.16794,-122.9695
-0.05029297,0.1220703,-0.28125,80.37405,250.1298,250.1298
0.4306641,0.1303711,2.401367,89.87023,-248.1832,1.549618
0.1000977,0.2919922,0.9833984,-7.29771,-4.954198,-1.656489
-0.03076172,0.2807617,0.9560546,14.19847,44.50382,37.57252
-0.3793945,0.03613281,1.793945,-20.77099,-54.66412,5.045802
-0.1542969,0.01074219,0.5039063,-126.9542,-176.4046,59.9084
0.04150391,-0.6967773,-0.03466797,-29.99237,-2.923664,66.80153
-0.01806641,-0.0009765619,0.09960938,-49.86259,-61.37405,47.89313
0.07519531,-0.02539062,0.07128906,-123.8779,107.8397,-201.7863
-0.1606445,0.09863281,-0.001953125,-20.65649,172.4351,-22.20611
0.4082031,-0.09863281,0.3486328,35.67176,16.45038,69.31298
0.2744141,-0.1948242,0.9741211,0.7251908,16.00763,0.4503817
0.324707,0.08789063,1.16748,-1.870229,250.1298,-15.07634
-0.7792969,-1.121094,0.9536134,9.076336,-135.4122,-67.0458
-0.05126953,-0.3041992,0.1958008,-9.129771,-91.84733,-65.24428
0.4291992,-0.4194336,0.08398438,-14.35114,-57.58779,94
0.05908203,0.01806641,0.277832,16.27481,65.43511,-34.01527
0.05810547,0.340332,0.6020508,208.9466,250.1298,129.8473
0.3657227,-0.2626953,0.784668,56.20611,99.15267,28.55725
0.03417969,-0.09521483,0.9526367,1.900763,-3.496183,-2.10687
-0.08203125,-0.04931641,0.9746093,29.32825,142.9924,20.45802
-0.3149414,0.08544922,0.8120117,-26.16031,-227.1527,-19.64122
-0.1108398,-0.1772461,1.551758,-137.1069,-196.6412,8.916031
0.2607422,-0.2026367,0.4672852,-29.20611,-74.91603,-11.45038
0.5146484,-0.4042969,0.3476563,-5.862596,-45.36641,42.43512
0.078125,-0.390625,-0.1401367,49.13741,34.03053,36.62595
-0.01513672,0.05957031,0.2397461,-84.38168,105.771,-124.2214
0.7836914,0.5771484,1.069824,82.80154,166,25.84733
0.3320313,-0.1552734,0.4321289,21.74046,79.33588,1.396947
0.1259766,-0.1147461,0.9838867,-2.091603,3.251908,-1.328244
0.574707,-0.01708984,1.492188,-23.78626,198.0076,7.419847
-0.6948242,-0.793457,1.452148,-20.83206,-39.70229,21.12214
-0.3979492,-0.3300781,0.4155273,-95.68702,-132.1374,-64.03817
0.2797852,-0.4731445,0.1352539,-4.503817,-42.95419,76.32061
0.01708984,0.03613281,0.1420898,-72.14503,-18.65649,45.17557
0.1635742,-0.07910156,0.3857422,126.4504,245.8702,-239.6412
-0.3564453,0.1606445,0.1142578,-76.9542,-161.0458,-113.4198
-0.1572266,-0.2470703,1.267578,-13.09924,129.6183,14.29008
-0.05664063,-0.08349609,0.9296875,-34.74046,54.54198,123.3969
-0.4428711,-0.1645508,1.32959,-163.2672,-26.89313,36.25191
-0.2978516,-0.8837891,1.060059,-112.8702,-58.51908,-40.05344
-0.02001953,-0.2514648,0.3100586,-21.49618,-92.92367,-54.72519
0.4926758,-0.3212891,-0.01220703,36.85496,-24.42748,17.63359
-0.05078125,-0.01367188,0.03173828,84.29771,-69.35114,71.54962
0.453125,0.2167969,0.5869141,-248.1527,250.1298,-72.65649
-0.4580078,0.4160156,0.02490234,-75.09161,-7.328244,-42.47328
0.2016602,-0.01757812,1.222656,-30.63359,222.1603,20.9313
1.22998,-0.7270508,0.859375,3.541985,-156.8397,-48.47328
-0.5678711,-0.09619141,1.083984,-35.28244,111.0992,36.52672
-0.7739258,-0.05810547,1.371094,-96.97709,-114.0763,22.03053
0.2661133,-0.105957,0.1621094,-50.38931,-52.82443,-4.900764
0.02587891,-0.4482422,0.6328125,-25.55725,6.862596,3.358779
-0.004394531,0.01171875,0.1425781,-115.6489,-35.03817,-10.83206
-0.07519531,-0.8203125,-0.04931641,224.2824,247.6183,-162.7252
-0.8515625,0.0703125,0.2026367,-63.69466,-248.1832,-83.79389
-0.07324219,-0.08154297,0.6928711,2.839695,-10.56489,-1.351145
0.7919922,-0.06396484,1.20459,-5.954198,103.8015,87.20611
-1.022949,-0.9018555,1.410156,17.70992,-200.542,55.89313
-0.1333008,0.1098633,0.1323242,-27.44275,-159.5267,27.58015
0.3901367,-0.4370117,0.2939453,14.54962,2.358779,24.0687
-0.07128906,0.03466797,0.2207031,-0.2290076,-120.6107,118.4122
0.1972656,0.1391602,0.1025391,-170.542,44.41221,-172.6794
-0.394043,0.3217773,0.01171875,-55.86259,154.2443,-56.29771
-0.7646484,-0.03125,0.2001953,45.94656,-248.1832,39.87786
0.4750977,-0.09619141,1.638184,37.53435,-117.8244,-23.37405
-0.737793,-0.05957031,2.14209,-51.48092,152.8397,212.9008
-0.6333008,0.09179688,1.372559,-18.90076,-115.7481,33.74046
0.331543,-0.07373047,0.1083984,-67.05344,-71.80916,-16.38931
0.2792969,-0.3891602,-0.04248047,38.35115,5.793893,31.47328
0.02050781,0.02539062,0.2856445,-87.35114,-29.70229,-84.8168
0.06689453,-0.01806641,-0.1176758,181.4809,211.0916,105.9924
0.3100586,-0.05273438,0.1928711,-39.59542,-9.030535,-9.78626
0.2358398,-0.1806641,0.9121094,4.625954,22.54198,0.2900764
-0.06689453,-0.04638672,0.6132813,9.46565,110.4351,50.9084
-0.9912109,-0.1928711,1.645508,-54.67939,-84.96947,-18.87786
0.09521483,-0.2460938,-0.07177734,-17.26718,-38.51145,64.44275
0.3525391,-0.1728516,-0.1464844,34.9771,-109.3206,43.71756
0.01757812,0.001953125,0.230957,-125.4733,-71.85497,-119.8244
-0.1430664,-0.01318359,-0.2011719,113.8779,250.1298,147.8015
0.3828125,-0.1113281,0.3833008,30.13741,76.91603,40.75573
0.1508789,-0.159668,0.9321289,-5.541985,-3.610687,-1.480916
-0.3393555,-0.1108398,0.6074219,19.90076,117.0305,19.75573
-0.5966797,-0.7802734,1.053711,-160.8168,198.2977,79.01527
-0.8935547,0.3139648,0.8139648,-51.03053,-242.4198,41.39695
0.4267578,-0.2509766,0.2998047,3.78626,-48.48854,-2.801527
-0.000488281,0.04541016,0.2431641,37.42748,66.87023,21.65649
0.1733398,0.06396484,0.3325195,-127.0992,78.54962,-150.2061
-0.2133789,0.2324219,0.3710938,18.17557,202.7786,97.1145
0.06542969,-0.1962891,1.16748,102.3206,-45.89313,0.1603054
0.6738281,-0.01220703,1.16748,-8.534351,-9.297709,-5.793893
0.4589844,-0.06152344,2.466797,-61.0229,120.3511,95.16031
-0.6806641,-0.08593751,1.050293,-101.7481,-121.7023,-19.21374
0.206543,-0.1044922,0.1977539,-32.9771,-84.1145,-22.03817
0.4311523,-0.5532227,0.1181641,-2.419847,-4.877862,22.37405
-0.03125,0.008789062,0.1049805,-9.351145,-75.14503,74.76336
0.1762695,0.1030273,0.2553711,-84.98473,250.1298,-232.4046
-0.2084961,0.2001953,-0.000488281,-16.91603,249.9924,-78.47328
-0.3305664,0.06396484,-0.5151367,-109.8092,250.1298,-7.679389
0.6220703,0.2675781,-0.222168,36.52672,-101.9313,-51.85496
0.6152344,0.3227539,-0.6904297,-3.625954,8.938931,0.03816794
-0.3520508,0.2109375,-0.02441406,114.5191,67.21374,59.0458
1.102539,0.1958008,-1.686035,1.503817,-70.26717,74.58778
0.2885742,0.1162109,-0.6015625,112.9771,-141.4657,39.90076
-0.3120117,-0.378418,0.1367188,-15.37405,1.954198,-33.87023
0.07226563,-0.01660156,-0.1962891,16.77099,-65.99236,-8.21374
0.01806641,0.02392578,-0.0009765619,50.50382,119.3282,117.2214
0.1181641,0.1484375,-0.1484375,118.2595,-136.6183,23.77863
-0.03955078,0.1225586,-0.9306641,4.717557,-7.015267,0.02290076
-0.03857422,0.1547852,-1.016602,-3.083969,0.2442748,-0.8625955
-0.1962891,0.2202148,-0.7983398,-85.45038,101.5878,-36.08397
0.2363281,-0.1303711,-1.89502,81.66412,-123.7481,-89.47327
0.2158203,0.07470703,-0.04248047,57.1145,-248.1832,-33.42748
0.5400391,-0.1044922,1.708496,-10.29008,222.4427,57.0229
0.1982422,-0.2490234,0.706543,-41.63359,16.38931,-0.9847328
0.137207,-0.4609375,1.92334,-18.58779,-34.54962,26.70229
-0.2177734,-0.3066406,1.072754,-110.687,-99.42748,20.24427
0.265625,-0.1445313,0.01367188,13.76336,-50.10687,-17.80153
0.2563477,-0.1401367,-0.1254883,50.84732,13.90076,63.32824
0.09765625,0.01904297,0.3046875,-115.5343,-51.0458,-139.9618
-0.08691406,0.1430664,0.2734375,166.8244,202.5573,98.0687
0.2407227,-0.1201172,1.437988,88.1832,-11.50382,-2.473282
0.550293,-0.09375,1.334961,33.17557,-114.4046,134.2519
2.797363,0.5043945,3.983887,-178.0611,250.1298,30.03053
-0.4638672,-0.5336914,1.362793,-63.38931,-94.47328,-5.862596
-0.01074219,0.1938477,-0.02539062,-25.79389,-83.84733,50.67939
0.04296875,0.008789062,0.1000977,-181.4886,4.08397,0.5954198
10.0249,-9.984375,14.99707,250.1298,250.1298,-2.587786
0.3383789,-0.3237305,2.313477,-71.76336,-152.7023,8.236641
-0.4790039,-0.2578125,0.7651367,-36.71756,55.67939,97.61832
-0.8334961,0.1455078,1.061035,-54.59542,-189.8244,-13.61832
0.2338867,0.1040039,0.4208984,49.31298,-13.00763,67.40458
-0.02636719,0.03417969,0.1235352,-114.3435,-85.16794,116.4046
0.175293,-0.0234375,0.01074219,-98.8855,189.1756,-175.2443
-0.6108398,0.1157227,0.07128906,-34.33588,205.145,-77.13741
1.009766,0.001464844,1.673828,-201.5954,-248.1832,1.221374
0.9975586,0.2797852,1.891602,-59.87786,250.1298,43.51908
-1.256836,-0.7768555,1.590332,-38.80153,-213.0534,-4.351145
0.1269531,0.09130859,0.2231445,-25.55725,-73.59542,20.91603
-0.07177734,-0.2416992,-0.1401367,71.16031,-65.58778,20.76336
0.07519531,0.07958984,0.3964844,-75.0458,188.0992,-192.4351
-0.4365234,0.2460938,0.5605469,-86.63358,52.8855,31.16031
0.1328125,-0.1362305,1.103516,-18.59542,-23,-0.480916
0.5224609,0.3901367,0.9824219,-40.36641,232.9313,19.26718
-1.224121,-0.4042969,1.721191,-59.1145,-87.69466,102.9313
0.1450195,-0.1821289,0.2485352,-30.70229,-80.33588,-82.62595
0.2133789,-0.2485352,0.01855469,1.961832,-59.93893,20.96183
0.06738281,0.03662109,0.1938477,-141.2977,63.05344,-133.7634
-0.6494141,0.1601563,0.2314453,-24.77863,230.374,39.01527
0.6567383,-0.3037109,1.176758,31.58015,156.4504,36.92366
-0.8369141,-0.7412109,1.084473,-248.1832,245.9695,70.63358
-0.7905273,0.4580078,1.119629,-112.6412,-216.374,-3.503817
0.5810546,0.168457,0.02294922,-7.679389,-121.1832,193.2214
-0.1181641,-0.2910156,0.02636719,78.37405,-8.893129,21.96947
0.09375,0.01074219,0.3271484,-111.6641,148.1603,-236.0229
-0.4077148,0.2177734,0.3686523,33.57252,220.8855,85.85497
0.4609375,-0.3139648,0.8237305,57.51145,56.12214,20.51908
0.2387695,-0.2290039,1.120605,5.335878,171.5649,24.50382
-1.029297,-0.9150391,1.459961,85.16032,-211.687,29.83206
-0.3095703,0.008300781,0.4643555,-108.0534,-172.084,-25.22137
0.4355469,-0.3310547,0.2338867,-38.45038,-40.8168,55.12214
0.1381836,0.02197266,-0.1166992,45.37405,63.52672,17.48092
-0.1079102,0.07617188,0.6132813,99.37405,215.084,-55.37405
0.1806641,0.7387695,0.03222656,-89.13741,-95.78626,48.67939
-0.1835938,-0.3515625,0.5893555,-36.0458,28.71756,11.26718
-0.03173828,0.3759766,0.9814453,-56.9771,48.22138,6.160306
-0.6533203,-0.009765625,1.560059,-21.62595,-136.626,44.9313
0.002441406,-0.2333984,0.487793,-1.770992,-89.84733,-34.01527
0.3999023,-0.2104492,0.3242188,-82.83969,-25.36641,52.41221
0.01806641,-0.168457,-0.1499023,68.24428,-2.099237,22.29008
0.03808594,0.1645508,0.5029297,-27.75573,159.1908,-222.7405
-0.440918,0.6025391,0.1791992,-5.160306,-95.78626,104.8855
-0.09814453,-0.0390625,0.7319336,-23.74046,-4.664122,2.847328
-0.2734375,0.04785156,0.980957,32.50382,164.6718,-46.54962
-1.035645,0.04882813,1.447754,-41.87023,-138.8397,38.64122
0.1694336,1.19873,0.8183594,-144.9695,-112.4122,18.10687
0.1938477,-0.2836914,-0.2685547,58.54962,63.35115,30.22901
0.02734375,0.1376953,0.3930664,-53.23664,62.25954,-152.1527
-0.7744141,0.5478516,0.4047852,-103.3893,82.20611,8.954199
-0.1181641,0.05615234,1.135742,-27.76336,170.6565,11.06107
-0.04638672,0.02929688,0.9711914,-1.923664,-14.10687,-2.19084
-0.6674805,0.4741211,1.783691,39.51146,-119.8931,55.46565
-0.01757812,0.1098633,0.6010742,-104.9771,-70.93893,10.64122
0.2250977,-0.1206055,0.7749023,-54.62595,-20.56489,15.41985
0.2246094,-0.3740234,0.144043,6.396946,33.0687,29.13741
-0.03515625,0.07617188,0.2021484,-109.2443,-27.01527,-103.4962
0.5893555,0.2631836,0.3291016,132.1221,141.4275,56.71756
0.5444336,-0.1572266,0.5205078,-37.79389,-33.27481,-6.755725
0.5898438,-0.112793,1.055664,-4.679389,-5.755725,-64.58015
-1.445313,0.04931641,1.248535,-140.1145,114.3664,202.0763
-0.1416016,0.02148438,0.4311523,-45.13741,-125.3053,-43.07634
0.3530273,-0.2758789,0.3183594,14.48092,-27.0458,28.19847
-0.02099609,0.07324219,0.05419922,-168.4962,15.9313,35.58015
0.04638672,-0.1074219,0.3950195,119.9084,126.7023,-103.2672
-0.8237305,0.1425781,1.476074,-231.4886,-248.1832,-131.5191
0.2578125,-0.2739258,0.9418945,-14.36641,11.49618,3.541985
0.4282227,-0.2128906,1.061523,-6.442748,2.236641,30.40458
-0.6118164,-0.9570313,1.466797,-182.2824,33.01527,30.22901
-0.4379883,-0.5693359,0.8271484,-13.19084,-155.3359,-95.96183
0.3222656,-0.09912109,0.3286133,24.86259,-76.54962,-13.20611
0.5356445,-0.2407227,0.02050781,-15.98473,23.05343,28.96183
0.07226563,0.02197266,0.2739258,-47.78626,-66.65649,-28.64122
0.1303711,0.08349609,0.03076172,250.1298,98.10687,110.1679
-0.002929688,-0.3188477,0.4189453,-3,93.15267,7.183206
0.1391602,-0.2094727,0.9370117,-26.1145,76.83206,26.60305
-0.2822266,-0.7836914,1.257813,-142.687,-43.91603,-29.32061
-0.1557617,-0.6328125,0.9023438,-45.91603,-139.0153,-71.85497
0.2548828,-0.2832031,0.3344727,22.55725,-61.1832,-27.85496
0.6870117,-0.3549805,0.4282227,-39.64122,13.01527,-20.77863
0.1748047,-0.1904297,-0.006835938,25.52672,-47.9313,63.58779
0.1933594,0.02636719,0.496582,-36.83969,250.1298,-112.3588
-0.4750977,0.2055664,0.3945313,-101.7939,-248.1832,-65.69466
0.1098633,-0.1806641,0.8491211,8.717557,186.8702,44.59542
-0.7675781,-0.3916016,1.384277,-32.32824,-170.626,3.923664
0.2011719,-0.1049805,0.2431641,9.496183,-75.06107,-1.709924
0.4238281,-0.01025391,0.02685547,13.55725,-29.99237,39.29008
0.09423828,0.03369141,0.2255859,-134.8397,-26.74046,-45.32061
-0.28125,0.0546875,0.09082031,-22.32825,112.7176,-29.93893
0.06982422,-0.09765625,1.441406,4.175572,119.3588,5.816794
-1.795898,-0.2895508,2.366211,-132.229,-70.92367,13.74046
-0.2270508,-0.1259766,-0.3227539,9.580153,-209.5191,-27.20611
0.1523438,0.2080078,0.2021484,-58.96947,26.54198,50.54198
0.05078125,-0.005859375,0.2431641,-72.0687,46.25954,-46.21374
-0.06445313,0.05615234,0.2138672,43.93893,121.3435,64.01527
0.2773438,0.04150391,1.254883,8.045801,-35.77863,-5
-0.925293,-0.7050781,1.612793,-203.0763,168.1374,6.847328
-0.5966797,0,0.1376953,-28.35878,-220.9313,31.39695
0.480957,-0.1982422,0.1088867,49.34351,-19.45802,47.17557
-0.04980469,0.005371094,0.1362305,-162.0076,-143.1069,-54.78626
15.99951,1.214844,10.22949,-93.26717,250.1298,-4.122138
-1.248047,-0.6484375,-0.2041016,9.480916,14.73282,-31.41985
-0.3603516,-0.1977539,0.3901367,69.44275,-248.1832,-20.0687
-1.020996,-0.2802734,1.268066,-75.61832,-208.8702,28.72519
-0.2304688,-0.1499023,0.06542969,0.1832061,-174.5114,19.9084
0.440918,-0.1210938,0.3486328,13.58015,-3.21374,-0.4885496
-0.08300781,0.01416016,0.1132813,-141.2977,-30.41985,68.35878
0.1660156,-0.09765625,0.418457,-4.51145,250.1298,-51.61069
-0.1582031,0.06982422,0.1962891,-55.9313,-130.7023,-41.22901
0.6630859,-0.3198242,1.866699,11.05344,-40.36641,-3.564886
-1.508789,-0.9853516,1.009766,10.9542,-204.2824,-28.36641
-0.1835938,0.1362305,0.1015625,-18.17557,-82.24428,11.18321
0.3876953,-0.1972656,-0.2197266,52.69466,4.89313,27.37405
0.08447266,0.05078125,0.4213867,-80.66412,122.9542,-141.1221
-0.3076172,0.06103516,0.3388672,-90.85497,122.9695,51.47328
0.7626953,-0.1577148,0.9150391,5.648855,54.38168,-7.480916
-1.10791,-0.1713867,2.088379,-51.71756,-134.2824,69.44275
-0.07763672,0.03759766,-0.1601563,-11.33588,-97.17558,-10.30534
0.5737305,-0.1704102,-0.2832031,-11.27481,-8.465649,33.79389
0.008789062,0.04638672,0.2368164,-131.9237,-10.22901,-63.25191
0.002441406,0.02294922,0.09667969,191.8321,178.0763,84.21374
0.1796875,-0.5561523,0.8486328,95.9313,-4.496183,2.129771
-0.3706055,-0.2519531,0.7607422,28.66412,25.99237,11.61832
-1.209473,-0.8847656,1.437988,61.34351,-64.12977,-33.12214
-0.3618164,0.1489258,-0.09472656,-29.8855,-175.4962,-40.10687
0.5048828,-0.2114258,-0.2226563,-14.38931,-42.61832,41.54962
-0.06396484,0.08398438,0.05175781,-80.93893,-152.0534,-79.59542
-0.05908203,0.07763672,-0.1630859,71.30534,161.2595,-24.05343
0.3129883,-0.1318359,0.4350586,28.87786,81.47328,39.82443
-0.08984375,-0.5380859,1.011719,-61.1145,203.8015,29.8855
-0.8164063,-0.1162109,1.070313,-57.22901,-152.1756,0.5572519
0.1337891,-0.01513672,0.1870117,-17.25954,-88.96947,23.23664
0.3984375,-0.3676758,0.02539062,-12.78626,-3.183206,12.63359
0.02587891,0.03759766,0.175293,-119.9924,-68.67939,-85.83206
-0.2851563,0.1416016,0.1386719,113.3511,250.1298,149.7099
2.014648,0.06738281,1.357422,75.47328,-217.9542,175.9847
-0.2109375,-0.3491211,1.369141,-42,172.9008,17.06107
-0.5478516,-0.3115234,1.101563,-50.51908,-181.2519,-16.81679
0.09228517,-0.171875,-0.004394531,4.687023,-38.87786,-18.16794
0.04150391,0.04345703,0.1616211,8.419847,-98.82442,104.8702
0.2255859,0.2202148,0.3823242,-85.87023,250.1298,-248.1832
-0.5454102,0.4658203,0.05712891,-29.34351,-189.5114,-71.20611
-0.168457,-0.2182617,1.07959,41.19847,6.030534,20.43511
0.8491211,0.2241211,1.40918,71.96947,213.3053,-112.6489
-1.293457,0.5522461,1.80127,17.50382,-75.96947,128.2672
0.03076172,0.1210938,0.01806641,-52.28244,-114.0992,-46.70992
0.07275391,-0.3164063,-0.015625,15.01527,-30.68702,14.64886
0.08251953,0.05908203,0.3354492,-78.9313,96.9542,-184.2672
-0.1088867,0.1123047,0.1630859,-94.83206,-35.54198,-5.343512
2.358398,-0.1738281,0.5830078,-26.50382,-107.3435,102.6412
-0.1298828,-0.2734375,1.323242,-46.37405,167.145,25.51145
-0.5839844,-0.2055664,1.043457,-54.80916,-180.1908,-7.862596
0.215332,-0.0009765619,-0.121582,-0.2290076,-53.45038,5.847328
0.004882812,0.06835938,0.1728516,-61.08397,60.92366,-26.9084
-0.07617188,-0.1396484,0.9331055,109.2137,250.1298,100.0916
-0.2006836,-0.3583984,1.291504,-177.916,-248.1832,-53.69466
0.3662109,-0.140625,0.9882813,-13.58015,5.755725,-32.9084
-1.08252,-0.07861328,1.557617,13.57252,-119.1679,38.54962
-0.359375,-0.03857422,0.2407227,-67.07633,-152.0687,-70.12214
0.2275391,0.01367188,-0.02197266,-33.9313,-161.5649,84.56489
0.02001953,0,0.1191406,-139.2748,-27.03053,-46.51145
0.015625,0.006835938,0.1308594,-11.45038,250.1298,-51.23664
0.4936523,-0.253418,0.699707,-42.10687,46,38.17557
-1.19873,-0.8515625,1.28418,-248.1832,250.1298,34.98473
-0.4775391,-0.1035156,0.7382813,-6.442748,-96.31298,-1.419847
0.2172852,-0.1206055,0.2915039,0.3587786,-60.87786,23.69466
-0.01611328,0.05175781,0.1679688,-114.8092,-9.083969,116.9618
0.1333008,0.01953125,0.2080078,-67.66412,57.32061,-127.7481
-0.5424805,0.1767578,0.07958984,-39.41221,2.549618,-84.12214
0.21875,0.1381836,1.266602,36.49618,222.7176,250.1298
-1.090332,-0.7529297,1.626465,42.42748,-116.0382,-46.61832
0.02148438,-0.01318359,0.265625,-17.41985,-90.05344,-49.89313
-0.1547852,-0.1801758,-0.008300781,-27.07634,-73.86259,56.64885
0.1137695,0.03808594,0.1411133,-158.626,-2.29771,-86.80153
0.01416016,0.04296875,0.08496094,23.58015,250.1298,38.51145
2.162109,0.05029297,2.302734,-147.5573,28.32061,-36.92366
-0.4375,-0.2060547,-0.3369141,55.45802,250.1298,80.35114
-1.161621,0.3227539,0.4609375,-109.2748,-220.8702,-35.48092
0.2485352,0.01904297,0.3076172,40.16031,-34.39695,-1.389313
0.01464844,0.07763672,0.04003906,-136.4962,-125.2443,105.9618
0.1176758,-0.02832031,0.05078125,-34.54962,158.8931,-153.8092
-0.1694336,0.1074219,0.08789063,-36.31298,158.3664,-61.14504
0.331543,-0.1088867,0.4536133,23.37405,126.0229,90.69466
-0.2280273,-0.4267578,1.561035,-74.9771,220.168,93.99236
-0.9536134,-0.002441406,1.118652,-36.76336,-198.6947,-0.8778625
0.3579102,-0.1000977,0.3544922,4.91603,-87.14503,-1.763359
0.1069336,-0.06738281,0.05371094,5.519084,-6.671756,37.50382
0.02929688,-0.01611328,0.1333008,-198.2214,-143.4046,-65.87023
-0.3110352,0.706543,-0.4462891,-11.85496,250.1298,250.1298
-0.4946289,-0.07128906,-0.5810546,-52.33588,250.1298,15.35114
-0.1904297,0.008300781,-0.9858398,-51.73283,-1.061069,-4.969466
-0.2104492,-0.2675781,-1.786133,130.2214,248.145,-38.63359
0.2807617,0.009765625,-1.622559,18.35114,-156.7252,-24.83969
-0.2338867,-0.2231445,0.4248046,-40.0229,-142.4199,-31.12977
0.01660156,0.004394531,0.01513672,-113.3359,-248.1832,-168.3512
0.6987305,0.6323242,1.091309,66.0229,250.1298,77.96183
0.1469727,-0.5341797,0.5517578,-7.175572,-248.1832,-80.13741
0.3208008,-0.2148438,1.055664,10.83206,-64.01527,-6.259542
-0.4887695,-0.753418,2.120605,61.41221,-13.01527,11.64886
-0.1948242,-0.06787109,0.6875,-57.25954,-160.4046,-52.29008
0.4443359,-0.1245117,0.453125,-26.74046,-28.35114,16.80916
-0.01318359,-0.2514648,0.07714844,60.66412,-67.87023,41.94656
0.1826172,0.05224609,0.125,-129.9466,-0.8549618,-57.67176
-0.5991211,0.340332,0.4199219,-108.4427,235.6412,-30.90076
0.6225586,-0.2578125,0.5151367,-42.73283,-8.534351,10.25954
-0.1274414,0.3334961,2.142578,-40.26717,250.1298,2.717557
-1.061035,0.2329102,1.150879,-34.29771,-145.7786,0.6564885
0.1474609,-0.2749023,0.3427734,-89.07633,-86.49619,-5.068702
0.2836914,-0.3095703,0.0009765619,0.740458,-3.610687,38.00763
0.02099609,0.05712891,0.3193359,-56.70229,50.69466,-142.4886
0.03369141,0.2094727,0.4643555,71,250.1298,91.57252
0.2573242,-0.07324219,1.179688,45.45038,-45.14504,4.496183
-0.1826172,-0.08740234,0.7910156,-75.29008,167.7481,48.59542
-1.135254,-0.2158203,1.66748,-15.83969,-125.7481,17.68702
0.05126953,0.03955078,0.1962891,-35.56488,-103.0458,-28.38168
0.05517578,-0.3208008,-0.05126953,5.908397,-91.9313,55.21374
0.02685547,0.03759766,0.2070313,-139.7023,37.40458,-143.9084
-0.02929688,0.09863281,0.1933594,31.07634,232.2366,35.1832
0.3735352,-0.3745117,0.7578125,52.64122,68.50381,42.35878
0.2529297,-0.1899414,0.8398438,-13.96947,-20.08397,-2.549618
-0.46875,-0.6352539,1.314941,88.70229,-70.43511,-42.8168
-0.002441406,-0.1679688,0.2822266,20.63359,-104.1298,0.2519084
0.001464844,0.08837891,0.07226563,-27.08397,-149.0992,-13.15267
0.1982422,-0.01953125,0.175293,-127.7786,135.8321,-122.458
-0.9599609,-0.07714844,-0.3457031,-50.17557,250.1298,-27.58778
-0.08593751,-0.03076172,-0.8354492,-71.57252,68.0458,21.82443
-0.4990234,0.347168,-1.237793,-20.77099,-23.26718,-14.43511
0.9272461,-0.1523438,-1.479004,-25.60305,-248.1832,-116.0687
0.4794922,-0.005859375,-0.1479492,64.54198,-248.1832,-127.5038
0.1113281,0.001953125,0.1088867,-30.32825,-248.1832,-6.38168
0.007324219,-0.0390625,0.5400391,105.771,250.1298,-25.35114
0.956543,-0.3476563,1.246582,42.03817,67.32061,-3.70229
-0.07568359,-0.137207,0.9780273,-2.59542,-0.3587786,-1
-0.4658203,-0.5405273,3.782227,-219.5038,211.0916,12.41221
-0.8056641,0.005371094,0.6503907,-27.0229,-240.4122,-47.68702
0.2709961,-0.1396484,-0.04541016,66.69466,-57.74809,38.0229
-0.04541016,0.05664063,0.1669922,-101.084,53.33588,-22.38168
-0.02734375,-0.1381836,0.6547852,82.05344,250.1298,141.626
0.5107422,-0.4101563,1.838867,-149.1679,-248.1832,-10.51908
-0.2602539,-0.1704102,0.5493164,24.29771,10.38168,60.52672
-0.5439454,-0.9282227,2.04248,-7.320611,-133.9237,35.16794
-0.3530273,-0.237793,0.753418,-62.16031,-237.145,0.3358779
0.2158203,-0.07861328,-0.3374023,28.31298,-30.53435,-13.64886
-0.01416016,0.02197266,0.2651367,-87,118.3893,-66.34351
1.741211,0.2460938,2.255371,29.66412,250.1298,77.90076
1.29834,-0.2880859,1.689941,-22.46565,-86.37405,-16.67175
0.8325195,-0.07373047,1.324219,-98.84733,250.1298,81.23664
-0.8828125,-0.4916992,1.351074,0.03053435,-186.2137,7.305344
-0.003417969,-0.05712891,0.2568359,-2.381679,-80.80153,-16.75573
0.222168,-0.07226563,-0.1279297,-13.59542,-95.36641,120.5267
0.02929688,0.03027344,0.1469727,-152.916,18.45038,-94.87786
-0.1708984,-0.05078125,0.007324219,-9.755725,250.1298,21.71756
0.4321289,-0.2006836,0.4467773,11.48092,75.79389,28.64122
-0.4960938,-0.2460938,0.5136719,-89.41984,200.2061,86.49619
-1.044434,-0.1601563,1.093262,-27.80153,-196.7863,-46.21374
0.2895508,-0.1865234,0.09082031,1.938931,-43.40458,-40.27481
0.4003906,-0.4077148,0.390625,-57.0458,-2.854962,15.79389
0.03955078,0.02636719,0.2143555,-79.31298,-46.76336,-54.59542
-0.1542969,0.2036133,0.3095703,131.8244,44.29008,17.48092
0.2744141,-0.171875,0.3076172,16.52672,131.4886,12.12977
0.9125977,0.03173828,0.6567383,0.5725191,99.70992,18.55725
-0.4423828,-0.4833984,1.48291,-41.78626,-78.45802,2.656489
-0.2739258,-0.2558594,0.746582,-61.22137,-164.7863,-37.9542
0.3603516,-0.3056641,-0.1225586,2.267176,-87.70992,11
0.01171875,0.04150391,0.1289063,-87.23664,61.83206,50.29008
0.1542969,-0.8613281,0.7348633,107.3893,250.1298,10.45038
-0.7329102,-0.4921875,0.5668945,-15.29771,-248.1832,-33.21374
0.1201172,-0.1591797,0.9873047,-12.41221,-34.27481,-3.076336
-0.4506836,-0.2441406,0.4038086,16.49618,201.5649,75.69466
-0.9863281,-0.2211914,1.421387,-1.778626,-139.5114,11.51145
-0.003417969,-0.05078125,0.2050781,-107.7328,-176.9389,7.587786
0.5258789,-0.4697266,0.171875,-79.07633,-6.38168,38.70992
0.01171875,0.05566406,0.1977539,58.72519,-22.9771,10.0458
0.06396484,-0.04931641,0.6894531,-4.198473,250.1298,-104.9924
-0.6235352,-0.2294922,0.8774414,-64.27481,-248.1832,-63.99237
0.1806641,-0.1772461,1.03125,-10.92366,12.03053,0.3587786
-1.436523,-0.8320313,0.9116211,12.74809,-248.1832,53.62595
-0.3999023,-0.246582,0.0625,-128.4351,-173.6336,4.396946
0.5913086,-0.3447266,0.4072266,2.007634,-134.7786,14.60305
-0.112793,-0.006347656,0.05224609,97.87023,103.6489,-37.80153
0.1459961,0.1162109,0.5444336,-95.70229,250.1298,-124.9695
0.04248047,0.1240234,0.2016602,-155.7863,9.908397,50.75573
0.347168,-0.1313477,1.209961,-9.732824,28.07634,0.7022901
-0.5874023,-0.2182617,0.6875,-88.61832,137.3512,25.47328
-1.100098,0.3276367,1.716309,-76.83969,-177.1756,9.534351
0.05078125,-0.008300781,0.2836914,-149.6565,-191.771,16.33588
0.5600586,-0.4384766,-0.1938477,18.67175,-14.35878,29.03053
-0.002441406,0.01171875,0.1313477,-93.33588,59.38168,-34.42748
6.849609,-11.625,15.99951,250.1298,-248.1832,-248.1832
1.484863,-0.2138672,0.2011719,-46.36641,-121.2214,24.58015
0.4833984,-0.03613281,1.429199,-18.9771,170.2824,10.86259
-1.123535,-1.16748,1.039063,120.0534,-208.855,46.38931
-0.3457031,0.4057617,0.2841797,-57.8168,-154.5038,-38.09924
0.1240234,-0.4731445,-0.2607422,-5.137404,-20.25954,54.66412
0.06298828,-0.04833984,0.1489258,-114.6565,7.458015,-71.08397
-0.6337891,0.137207,0.1054688,-14.70229,250.1298,39.66412
-0.703125,0.06152344,0.1542969,28.16794,-248.1832,6.305344
-0.3666992,-0.1831055,0.00390625,29.51145,108.0992,29.24427
-1.056641,-0.9750977,1.363281,31.66412,-177.7481,19.69466
-0.07470703,0.121582,0.269043,-35.52672,-83.73283,-66.32825
0.4492188,-0.008300781,0.371582,-3.885496,-20.8855,6.557252
-0.03515625,0.01074219,0.06494141,-119.9924,-189.8168,35.49618
-3.816406,-15.86035,-4.621582,250.1298,250.1298,-248.1832
-0.7148438,-0.4140625,0.1557617,-1.007634,-248.1832,-24.60305
0.3432617,-0.03466797,1.541992,4.946565,163.0763,32.96183
-0.9638672,-0.6743164,1.192871,53.1145,-120.1756,10.59542
-0.3125,-0.06494141,0.3046875,3.51145,-121.1908,-10.70229
-0.05664063,0.3618164,-0.01806641,-173.8702,-141.0687,175.7481
-0.01025391,-0.01318359,0.07519531,-105.2214,-90.75572,-41.36641
2.255371,4.211426,7.552734,250.1298,250.1298,-238.3588
-0.1567383,0.1801758,1.230957,44.39695,-248.1832,-2.984733
-0.1464844,-0.3686523,1.666016,1.954198,250.1298,1.427481
-0.9526367,-0.06347656,0.9228516,-38.56488,-230.9313,12.37405
0.1806641,-0.1694336,0.3647461,13.07634,-9.854961,-10.14504
0.05175781,0.1000977,0.175293,-38.77099,-130.9389,197.5802
0.08251953,-0.04052734,0.06689453,-144.2137,132.7863,-102.9389
-0.2050781,0.03662109,-0.01611328,-30.61832,250.1298,-2.549618
0.3266602,-0.1538086,0.4038086,0.9083969,-10.0687,79.87786
-0.2768555,-1.572754,2.356446,-248.1832,134.1145,118.8855
-0.1323242,0.01123047,0.2480469,3.137405,-169.2824,-0.5496183
0.1445313,-0.0009765619,0.1635742,35.63359,-60.56488,105.1985
-0.01220703,-0.02587891,0.08886719,-109.3206,-56.28244,38.38168
7.991211,4.506348,1.874512,73.65649,250.1298,-56.38931
-0.7128906,0.8637695,0.6210938,-108.9847,-248.1832,24.42748
0.04638672,0.1518555,0.9755859,102.9847,71.01527,-23.12977
-1.190918,0.2333984,1.838867,-28.39695,-237.6641,100.2366
-0.1230469,0.1303711,0.1630859,-134.0305,-105.4504,-32.96947
0.2226563,-0.4672852,-0.04101563,59.56488,-77.8855,71.03053
0.01904297,0.01757812,0.1479492,-82.771,56.98473,-30.40458
0.03857422,-0.2587891,0.7670898,122.2366,250.1298,16.22901
-0.9692383,-0.02832031,0.4052734,-109.1221,-248.1832,-95.38168
0.65625,0.2880859,1.047852,20.84733,-146.5191,127.4122
-0.9902344,-0.9868164,1.51123,50.45038,-97.29008,32.67939
-0.4672852,0.2827148,-0.2626953,11.9771,-248.1832,-50.96947
-0.4526367,-0.3833008,-0.5952148,29.91603,92.89313,-10.94656
0.1269531,0.04833984,0.5961914,-108,250.1298,-214.4733
-0.1948242,0.1181641,0.2128906,-154.0916,71.19847,6.78626
0.1020508,-0.125,0.9760742,2.068702,16.47328,6.648855
-1.001465,-0.5600586,1.091797,-24.72519,-178.4886,46.56488
-0.09228517,-0.2075195,0.5024414,-42.41221,-202.2824,-3.045802
0.4609375,-0.2329102,0.215332,-23.64886,-59.17557,7.328244
-0.9638672,0.3769531,-0.4248046,93.39695,-4.366412,-82.29008
-0.02880859,0.1152344,1.111816,-155.5878,250.1298,-81.80917
-0.4228516,-0.6098633,1.722168,-21.85496,-248.1832,-60.87023
0.4638672,-0.06396484,1.296387,-6.030534,160.3206,-70.78626
-1.406738,-0.7900391,1.599609,2.984733,-99.99236,-33.67176
-0.4638672,-0.09423828,0.2133789,-101.8397,-247.6947,-96.29771
0.3388672,-0.009765625,-0.3520508,51.65649,-21.32825,20.70229
0.2519531,0.05126953,0.2749023,-130.9008,141.3817,-59.1832
0.01464844,0.1220703,0.07226563,65.38168,250.1298,250.1298
0.5664063,-0.1386719,0.6889648,-10.21374,194.2061,28.07634
0.03808594,-0.4311523,0.5366211,12.59542,15.29008,15.96947
-0.6904297,-0.7529297,0.9233398,-248.1832,250.1298,29.60305
-0.4018555,-0.03564453,-0.1459961,-219.2061,-248.1832,-52.1145
-0.3173828,0.3007813,-0.519043,101.3817,70.03817,-31.64886
0.2397461,0.1914063,0.980957,-134.9389,250.1298,-248.1832
0.3974609,-0.7651367,2.149902,7.91603,-158.2519,-43.51908
0.1430664,-0.1958008,1.015625,-5.870229,28.87023,1.992366
-0.3344727,-0.0234375,1.004883,-122.9771,210.0382,51.80916
-1.090332,-0.5498047,1.679688,-85.29771,-228.6718,-19.0229
0.07519531,-0.008789062,-0.168457,-4.549618,-91.0687,-67.68702
0.1469727,0.06298828,-0.3657227,-1.885496,-16.16031,-7.251908
0.265625,0.1347656,-0.06396484,-55.65649,39.54962,-70.66412
0.1425781,0.496582,-0.3388672,-248.1832,250.1298,250.1298
0.4174805,0.2084961,-0.3930664,117.1603,250.1298,250.1298
1.219238,0.1669922,0.1708984,19.74046,92.26717,-13.16031
0.9921875,0.03417969,0.06201172,-7.435114,-97.72519,-6.80916
1.757324,-0.004394531,-2.239258,-36.13741,-78.32061,21.00763
0.9672852,0.5883789,-0.7763672,193.771,-248.1832,4.08397
-0.1469727,-0.2255859,0.5332031,-39.53435,-29.98473,-12.38931
0.05078125,0.02880859,-0.02539062,-123.9847,-248.1832,-96.03053
10.03711,-3.844727,2.907715,250.1298,250.1298,-248.1832
-0.1762695,0.3149414,-0.02001953,-24.22901,44.35115,-92.8168
-0.8325195,0.340332,0.6347656,29.30534,-177.3664,10.58779
-0.4458008,0.3115234,0.8149413,-45.38931,38.25191,-15.29771
-0.3583984,0.6938477,1.911133,-125.0763,-85.05344,-18.22901
-0.01611328,-0.02099609,0.5766602,-118.5649,-79.25954,-18.40458
0.2832031,-0.04248047,-0.1948242,-108.6336,-2.473282,-17.58015
0.1206055,-0.03271484,0.08593751,-108.313,124.5878,-34.87786
-4.37207,4.37793,3.368164,250.1298,2.167939,115.9542
-1.153809,0.1582031,0.8686523,71.16794,-248.1832,-14.32824
-0.2158203,-0.1049805,0.9296875,-1.625954,-14.38931,-1.816794
-2.455078,-0.4482422,2.838379,31.1145,-41.8168,26.57252
-0.4785156,-0.1513672,0.07519531,-94,-223.6794,28.55725
0.4848633,-0.3652344,0.06494141,26.84733,-31.48092,6.91603
-0.09667969,0.1918945,-0.4370117,129.2061,-248.1832,-29.44275
0.2485352,0.1821289,-0.4526367,-112.7328,5.671756,-60.25954
-0.3452148,-0.2202148,-3.211914,47.41221,-135.3893,-41.34351
0.1259766,0.1040039,-1.018066,12.16794,24.73282,22.80153
0.2460938,0.2460938,-1.378906,-55.22137,-185.9618,-19.77099
0.121582,0.1411133,0.671875,95.12977,-248.1832,-122.3588
-0.7646484,0.1435547,2.539551,-38.80153,-68.58015,-43.84733
-0.03808594,0.02099609,-0.6728516,-190.6794,-141.9008,46.89313
-0.2402344,0.08349609,-0.3535156,99.24428,116.771,-108.374
-0.1171875,-0.1386719,0.5214844,7.580153,250.1298,-2.748092
-0.1586914,-0.07373047,1.416504,-36.19084,-248.1832,-16.57252
0,-0.1396484,0.9873047,-5.282443,5.145038,-1.229008
-0.2319336,-0.2119141,2.102051,-101.6794,250.1298,104.2748
-0.5766602,0.2543945,1.031738,-112.4428,-213.4275,38.60305
0.3359375,-0.1352539,0.3554688,-80.43511,-114.2137,7.633588
0.3461914,-0.3417969,-0.4926758,36.93893,-45.94656,-18.0687
0.09179688,-0.03564453,0.5966797,-78.58015,250.1298,-49.27481
-0.04345703,0.1967773,0.004394531,-9.572519,210.1374,36.96947
-0.01953125,-0.07666016,1.014648,-20.54962,-29.44275,-7.450382
-0.2143555,0.03662109,0.7368164,3.328244,22.08397,-0.8549618
-1.55127,-0.078125,1.290527,78.47328,-128.1603,179.2137
-0.3608398,-0.03369141,0.3081055,-158.7176,-217.4809,-24.27481
0.2075195,-0.02050781,-0.2675781,42.37405,-12.87023,-7.557252
0.05322266,0.004394531,0.6533203,-28.1145,250.1298,-90.79389
-0.3833008,0.1362305,0.7241211,-91.38168,-230.0611,-51.87023
0.05517578,-0.1225586,0.9907228,-1.114504,18.8855,0.4503817
-0.675293,-0.6953125,-1.036621,-24.9313,201.9237,16.35114
-0.7041016,-0.4057617,0.7426758,43.41985,-124,-87.56489
0.3076172,-0.001464844,0.3374023,2.832061,-58.35878,19.36641
0.1557617,-0.1508789,-0.140625,13.70229,-1.91603,12.83206
0.04248047,-0.0009765619,0.4799805,-59.87786,172.6183,-44.42748
0.09423828,0.06054688,0.3364258,67.32825,132.8168,-55.20611
0.01953125,-0.04345703,0.980957,-18.48855,1.137405,-3.320611
-0.3105469,0.09619141,1.037109,-39.16031,189.8702,-99.9313
-0.9228516,-0.1020508,1.555664,-11,-78.65649,24.80153
-0.2426758,-0.01464844,0.6503907,-58.46565,-127.0992,-10.52672
0.2617188,-0.2436523,-0.02978516,13.34351,-73.64886,69.07633
-0.01855469,-0.02050781,0.3867188,20.21374,175.7863,-70.82442
2.722168,1.937988,2.942871,250.1298,-18.48092,41.73283
-0.4658203,-0.1108398,0.5605469,30.0687,23.09924,6.816794
-0.1040039,-0.0234375,0.9785156,-1.259542,0.8473283,-0.06870229
0.03417969,0.03125,1.351563,-13.15267,29.19847,-3.412214
-0.3364258,-0.4365234,1.184082,-61.91603,178.1756,-26.03053
-0.9663086,0.03369141,1.216309,-30.74046,-187.855,57.42748
0.01269531,0.0625,0.3061523,-93.25954,-118.7863,9.480916
0.008789062,-0.2446289,-0.0625,33.83969,28.41985,35.15267
0.2578125,-0.05615234,0.4135742,-125.458,-153.0992,-45.25954
0.03808594,0.001953125,0.1625977,63.61832,176.6336,-17.87023
0.03857422,-0.2148438,0.8378906,15.32824,-20.18321,-5.068702
0.1845703,-0.1987305,0.9746093,-3.793893,3.274809,0.07633588
-0.2158203,-0.08105469,1.20166,-32.06107,88.52672,40.42748
-0.8388672,-0.4799805,1.401367,-53.72519,-2.656489,-44.43512
-0.2856445,-0.1191406,0.6816406,13.82443,-102.0763,-67.1832
0.309082,0.1079102,-0.01464844,60.29008,-9.114504,6.473282
-0.2597656,-0.1557617,0.1293945,16.90076,87.50381,-66.34351
3.317871,2.382813,3.847168,134.2595,250.1298,109.687
-0.004882812,-0.28125,0.3608398,78.42748,60.55725,-2.931298
-0.07617188,0.02734375,1.266113,9.671756,136.8397,28.35878
-0.6352539,-0.1694336,1.404785,11.47328,-87.08397,2.267176
-0.137207,-0.1811523,0.4482422,-26.90076,-145.2519,22.0229
0.121582,-0.05712891,0.03271484,-60.84733,-10.20611,18.80916
0.02929688,-0.003417969,0.1865234,-123.0382,250.1298,-91.59542
-3.831055,0.1367188,1.797363,250.1298,-248.1832,250.1298
-0.203125,0.2104492,1.22168,-0.5648855,79.39694,46.16794
-1.475586,-0.574707,1.947754,-84.30534,-248.1832,8.106871
-0.3828125,0.02148438,0.4375,-87.64886,-248.1832,-28.12977
0.2827148,-0.2871094,-0.4018555,-64.14503,-121.458,140.8855
-0.7734375,0.5571289,-0.2529297,120.2366,-182.4427,-190.2824
0.3203125,0.3110352,-0.01171875,163.771,-53.80916,117.6641
0.078125,-0.355957,-0.1948242,20.32825,10.94656,78.58015
0.07128906,-0.1816406,0.9829102,-7.10687,0.6946565,-1.022901
-0.6811523,-0.7294922,1.550293,-90.96947,250.1298,164.0229
-0.7973633,0.01855469,1.193848,-28.12977,-174.916,-96.29008
0.3491211,-0.1235352,-0.3413086,-69.51145,-117.4275,16.37405
-0.2949219,-0.004394531,-0.8110352,250.1298,44.87786,83.77863
-0.1000977,0.03808594,0.4995117,17.83969,60.32824,-86.60305
0.269043,0.1933594,0.4384766,85.47328,116.6031,-86.86259
0.3422852,0.01660156,1.019531,0.5267176,18.75573,-0.6870229
0.2558594,-0.02685547,0.2602539,61.10687,-248.1832,-1.770992
-1.874023,-0.690918,1.135742,-106.084,-9.534351,90.21374
0.02734375,-0.1567383,0.3789063,-100.0687,-159.1985,-65.74046
0.06884766,-0.08154297,-0.3037109,37.01527,-145.7786,-12.55725
0.2285156,0.03613281,0.1665039,-7.862596,250.1298,-37.71756
-0.2670898,0.3798828,0.5302734,-21.05343,-58.64885,-57.80152
0.1660156,0.009277344,0.9106445,-0.4122138,18.76336,-0.08396947
0.2866211,-0.02490234,0.9672852,-2.534351,1.977099,-1.450382
0.03369141,-0.3286133,1.251953,-97.14503,250.1298,77.41222
-0.3286133,-0.09570313,1.23877,-6.748092,-248.1832,19.43511
-0.1806641,0,-0.3286133,-77.09161,-166.2595,39.77862
-0.009765625,-0.004394531,-0.01660156,-23.93893,111.6794,-54.06107
-0.1533203,-0.1137695,0.1860352,-14.54198,250.1298,-100.9313
1.246094,-0.03759766,3.500977,-137.6183,-96.20611,8.015267
0.002441406,-0.09667969,0.9970703,-1.137405,-6.427481,-1.312977
-0.9316406,-0.3544922,2.159668,-71.98473,-197.626,-1.29771
0.1606445,0.008789062,0.5595703,-118.771,-248.1832,69.17558
0.3598633,-0.1396484,-0.05517578,23.63359,178.1756,-1.335878
0.7885742,-0.04638672,0.8671875,21.32825,249.3283,-200.3512
-0.005859375,0.08837891,0.03125,63.26717,71.96947,46.55725
0.05126953,-0.08837891,0.6567383,-32.31298,14.78626,-6.259542
0.02294922,-0.0234375,0.9960938,5.229008,190.084,-24.15267
-1.377441,-0.3828125,1.28125,-5.923664,-182.0611,-43.61069
-0.04394531,-0.2011719,-0.1826172,-129.9084,-248.1832,33.91603
-0.3618164,0.1660156,-0.8110352,57.34351,79.40458,-58.71756
0.7661133,-1.126953,2.498047,200.2672,250.1298,-207.626
-0.4418945,-0.1362305,1.365234,-248.1832,-16.00763,-64.03053
-0.005371094,-0.3305664,1.11084,-1.412214,-13.89313,0.1221374
-0.765625,-0.6835938,1.834961,-40.94656,167.4809,141.8626
-0.5195313,0.04052734,1.192383,-94.9771,-199.8702,-8.21374
-0.1235352,-0.1430664,-0.7739258,-179.5649,-177.4351,-23.32061
-1.189453,1.092773,-0.2094727,29.29008,250.1298,-15.0229
0.08593751,0.1303711,0.6088867,-6.89313,-63.80916,3.961832
0.1323242,-0.09570313,0.9907228,-13.26718,4.603054,-2.59542
0.7553711,-0.02197266,0.9399413,-42.69466,228,76.229
-1.228516,-0.730957,1.465332,-75.86259,5.236641,11.0916
-0.5820313,0.3032227,0.3276367,-133.6488,-248.1832,-156.8626
-0.07568359,-0.1293945,-0.9506836,96.34351,-110.7252,8.244275
0.25,-0.08251953,0.4912109,10.81679,-94.80916,-87.21374
-0.5883789,1.078613,1.564453,250.1298,250.1298,67.62595
-0.484375,-0.618164,1.844727,-108.6718,-248.1832,-31.29771
0.0625,-0.08691406,1.012207,9.145039,17.28244,1.40458
-0.7407227,-0.4291992,1.688965,-228.6947,250.1298,187.7939
-1.066406,0.6645508,0.8959961,-132.7786,-216.0458,-22.54198
0.08740234,0.08056641,-0.7880859,-212.8092,-204.4275,-172.9695
-0.1879883,0.3227539,-0.5014648,33,-228.8321,-38.34351
-0.015625,-0.07861328,0.5302734,140.5954,250.1298,-79.20611
-0.05810547,0.1113281,0.7558594,-207.7557,-205.5267,-14.41985
0.1484375,-0.1503906,0.9770508,3.954198,18.93893,-1.877863
-0.590332,-0.3017578,1.250977,-79.58015,226.9771,69.22137
-1.018066,0.3344727,1.291992,-129.9847,-248.1832,-70.61069
-0.01953125,0.2070313,-1.376953,-224,-248.1832,-35.96183
-0.2583008,0.4345703,-0.1645508,107.4122,92.78626,-39.96947
-1.422852,-0.3076172,0.6074219,89.12977,250.1298,25.62595
0.2563477,-0.5932617,1.67627,-91.20611,-86.91603,1.854962
0.15625,-0.07861328,0.8989258,0.8625955,-1.664122,-25.81679
0.4633789,-0.001464844,1.553223,-16.41985,182.1527,-24.07634
-1.648438,-0.590332,2.27832,-248.1832,-149.229,91.25191
-0.4692383,0.3920898,0.2099609,-113.9084,-222.2519,-22.32061
0.2856445,-0.3754883,-0.6879883,14.1145,-22.58779,90.35879
0.05078125,-0.04785156,0.1518555,-67.44275,250.1298,-107.2748
1.935547,-6.22998,8.694824,250.1298,-248.1832,-140.2901
-0.8588867,-0.2421875,0.9472656,-208.8015,-248.1832,-115.8855
-0.09082031,-0.2250977,0.9204102,-6.671756,3.992366,-1.10687
-0.5400391,-0.4526367,0.9570313,-64.35878,35.19847,-3.251908
-0.8022461,-1.352051,1.456055,-46.10687,-192.0229,-8.412213
-0.09472656,0.04199219,0.01416016,53.45038,-210.855,-86.91603
0.1586914,-0.1137695,-0.5395508,-5.274809,-43.26717,95.58778
0.05224609,-0.01220703,0.2919922,-80.68702,250.1298,-88.84733
0.05712891,0.3852539,-0.3974609,129.229,250.1298,143.5649
0.08496094,-0.2753906,0.4541016,110.626,-4.19084,19.1145
0.06103516,-0.1499023,0.984375,-2.007634,0.09160305,-0.8091603
-0.1235352,-0.1513672,1.9375,-49.51908,211.1603,63.77862
-0.5229492,-0.7211914,1.269531,-142.4657,-199.2824,-50.29771
0.1567383,-0.2807617,-0.08886719,54.96183,-192.0382,-51.9313
-0.1425781,0.2138672,-0.2636719,142.6336,-78.771,-23.90076
-0.05957031,0.02246094,0.2827148,-95.74046,250.1298,-163.2672
0.2236328,0.234375,0.5332031,94.55725,-68.41985,61.04581
-0.08837891,0.128418,1.467285,48.77863,5.374046,-3.396947
-0.2426758,-0.01416016,0.8012695,24.29771,134.5114,20.9084
-0.4985352,0.4130859,1.533691,-38.27481,250.1298,-62.32824
-1.342285,-0.3486328,1.322754,30.19847,-123.1145,62.28244
-0.05126953,-0.07177734,0.4072266,-90.32061,-106.7557,-34.0916
0.1508789,0.09863281,-0.05615234,-65.22137,250.1298,-171.3053
0.08447266,-0.1010742,0.4101563,-5.251908,158.0992,-185.0687
0.1479492,0.1479492,0.1367188,-3.541985,169.1603,99.52672
0.5249023,-0.1142578,0.1850586,-54.96947,-116.0611,-56.75573
0.9121094,-0.09423828,0.5634766,-8.847328,93.09924,13.54962
0.2993164,-0.07714844,0.5410156,7.274809,-4.343512,-7.664122
1.26416,-0.3383789,0.7949219,-248.1832,-176.2137,27.67939
0.9819336,-0.4785156,-1.305664,-143.1832,-113.2061,185.2214
0.1181641,0.1860352,0.008789062,97.89313,-115.7786,32.29771
0.06835938,-0.01416016,0.0078125,133.7481,250.1298,-62.39695
0,-0.09326172,-0.1474609,-37.01527,104.2748,-153.3817
0.4355469,-0.8476563,-1.867188,141.6488,-52.00763,115.0611
0.3740234,-0.5356445,-0.8359375,7.099236,-10.49618,9.305344
1.560059,-1.803223,-1.22998,76.59542,108.5115,-129.4733
1.458008,-0.859375,-1.29834,-26.70992,-131.8244,126.313
-0.07861328,0.1069336,0.02978516,168.5191,124.1145,-141.4962
-0.02441406,-0.1162109,0.2250977,9.412213,21.58779,123.8626
-0.003417969,0.02734375,0.04296875,-10.27481,79.57252,-141.9084
-0.02050781,-0.07763672,0.1328125,-64.60305,37.84733,-21.01527
1.064453,0.06542969,0.2158203,7.366412,190.3512,-50.71756
-0.2368164,-0.230957,0.2807617,-53.34351,78.84733,-34.32061
-0.230957,-0.1196289,0.9555664,-1.389313,-5.114504,-1.48855
0.001464844,-0.1894531,2.561035,-27.25954,-228.3588,-16.08397
1.510254,-0.1538086,1.060547,-58.19847,-108.4962,18.26718
0.4306641,-0.1918945,0.237793,-30.50382,3.221374,9.045801
0.2421875,-0.2060547,-0.07177734,14.24428,143.4886,31.9542
0.015625,0.001464844,0.1884766,-48.21374,68.22137,56.27481
-0.8813477,0.03222656,0.1079102,-111.6947,-15.75572,-39.0687
-0.03613281,-0.1313477,0.993164,-17.07634,17.9542,0.7480916
-0.527832,-0.3525391,0.8852539,6.007634,127.0153,7.320611
-0.5375977,-0.3769531,1.330566,69.40458,-44.96947,99.24428
-0.05175781,-0.175293,0.3144531,-57.94656,-125.3282,6.412214
0.4536133,-0.3867188,0.5869141,14.33588,-51.1145,31.48092
0.5170898,-0.3974609,0.3422852,-34.08397,28.53435,19.37405
-0.05810547,0.04345703,0.1928711,-42.96183,-45.64885,34.54962
10.58154,-12.90527,10.50977,250.1298,250.1298,-248.1832
-0.9643555,-0.543457,1.131348,-110.0992,-248.1832,-50.83206
-0.08544922,-0.2138672,0.7929688,2.534351,36.42748,3.160305
0.3505859,-0.1855469,1.189941,-33.29008,105.3893,14.86259
-0.5200195,-0.387207,1.600098,-23.80153,-77.84733,6.824428
-0.02929688,-0.3110352,0.4472656,-63.52672,-182.313,-61.72519
0.4477539,-0.2041016,-0.04394531,57.59542,22.73282,36.74809
-0.06347656,0.02197266,0.2163086,-7.412214,86.48855,-43.14504
0.2397461,0.456543,0.1791992,123.2519,75.64122,33.37405
0.01269531,-0.324707,0.4145508,34.71756,58.65649,13.81679
0.4384766,-0.1640625,1.107422,21.83206,68.08397,-15.14504
-0.40625,-0.5537109,1.062012,-53.41984,176.0916,39.31298
-0.7299805,-0.02197266,1.395508,-80.23664,-217.1221,11.64886
0.1625977,-0.2211914,0.01660156,-60.9084,-70.83969,-50.75573
0.2202148,-0.0234375,-0.2553711,34.49618,-91.21374,65.1832
0.05224609,0,0.3339844,-99.15267,38.55725,-119.7176
-0.105957,0.01367188,0.253418,-3.603053,72.28244,-6.870229
0.2680664,-0.02978516,1.546875,40.29771,84.32061,0.9923665
0.28125,-0.1679688,0.9604492,-1.870229,0.1068702,-0.9923665
-0.2006836,0.1894531,0.8339844,-23.70229,-24.0916,-11.69466
0.8837891,-0.3974609,1.630371,-91.85497,176.9237,17.22137
-1.005859,-0.3935547,1.645996,-35.23664,-123.9084,-13.52672
-0.09619141,0.01367188,-0.07177734,-27.66412,-138.2901,-44.15267
0.006835938,0.1079102,0.09326172,-57.61832,-97.19084,115.6565
0.09179688,0.02636719,0.2792969,31.61069,131.3359,-174.0382
-0.1240234,0.1782227,0.1386719,-44.8168,-114.0382,-88.53434
-0.1977539,0.005859375,0.9575195,6.541985,20.58015,4.320611
0.01171875,0.1772461,0.8989258,13.22901,-80.67175,44.8168
-0.4208984,0.08642578,1.411621,-94.69466,212.5191,69.82442
-0.6171875,-0.2504883,1.442871,-43.42748,-212.229,8.900764
0.2426758,-0.2456055,0.2236328,-35.14504,-71.33588,9.251908
0.02050781,0.07128906,0.1875,-41.65649,110.5038,84.73283
7.772461,-5.371582,11.22314,250.1298,250.1298,-186.8626
1.001465,-0.4614258,1.974121,-112.9771,-171.7557,-5.366412
0.4350586,-0.1171875,0.9121094,22.10687,105.229,61.1832
1.509766,0.6845703,2.873047,3.656489,250.1298,-113.0687
-0.8710938,-0.4033203,1.180664,-57.35878,-168.7099,-70.82442
0.1040039,0.1591797,-0.03320313,-68.90839,-248.1832,-26.9084
0.1420898,-0.00390625,-0.04833984,-8.961832,88.22137,-45.55725
-0.8056641,-0.1499023,0.1098633,57.58015,250.1298,78.90076
-0.4521484,0.006347656,1.217285,23.93893,-248.1832,-9.923664
-0.04248047,-0.2294922,0.9726563,-8.893129,-25.68702,-2.473282
0.001464844,-0.2426758,0.965332,-3.083969,-0.6412214,-0.8091603
-0.2104492,-0.2016602,1.290527,-35.60305,22.98473,18.61832
-0.7651367,-0.5317383,1.366211,-61.55725,-129.5038,-53.70992
0.03125,0.2695313,-0.03710938,24.08397,-207.4809,23.22137
0.05175781,-0.001953125,0.1791992,-60.94656,149.8397,64.37405
-0.5458984,1.922852,2.874023,95.72519,250.1298,104.7634
1.572266,-0.01708984,2.806641,-87.20611,-168.8626,-31.65649
0.3041992,-0.168457,0.9672852,-6.045802,8.305344,1.396947
0.09228517,-0.152832,1.108887,11.41221,131.3893,-14.56489
-0.2954102,-0.4350586,1.609863,-20.87786,-146.2672,-13.89313
0.1079102,0.07275391,0.1679688,6.007634,-58.40458,-23.22901
0.1865234,0.07617188,0.004394531,90.41985,-91.32061,212.8626
0.02441406,0.009765625,0.1611328,-109.5878,13.10687,-75.25954
0.1010742,-0.04443359,-0.2138672,-10.03817,250.1298,-28.62595
1.337891,0.005859375,1.133301,-36.54198,-82.38931,-44.58779
0.3989258,-0.03466797,0.8544922,-4.755725,12.89313,-0.04580153
-0.3886719,0.2597656,0.6235352,-62.08397,250.1298,11.23664
-1.032715,0.09765625,1.061035,-139.0076,-248.1832,-42.55725
0.168457,-0.005859375,0.1396484,14.57252,-85.51908,25.31298
0.000488281,0.03662109,0.1538086,-8.083969,1.564886,81.01527
0.1767578,0.1269531,0.3701172,-17.57252,136.7176,-248.1832
-0.5493164,0.3647461,0.1171875,-31.51908,-248.1832,-78.54198
-0.1289063,-0.01318359,1.029297,27.61069,65.71756,10.19084
0.2763672,-0.1459961,0.8198242,3.969466,-3.259542,63.91603
-0.5561523,-0.503418,1.697754,48.32061,-30.59542,33.08397
-0.1669922,-0.04736328,0.5737305,-49.52672,-189.4657,5.992366
0.25,-0.2348633,-0.1123047,3.51145,-92.96947,-32.73283
0.02587891,0.02490234,0.1010742,-83.16794,105.8092,18.80153
-0.1757813,0.5385742,0.1835938,230.7176,237.374,90.77863
1.117188,-0.2441406,1.265137,-66.79389,-81.89313,-0.4427481
0.184082,0.1191406,0.9921875,51.29008,250.1298,27.93893
-1.725098,0.5722656,1.339355,-101.8244,-198.4275,11.9771
0.1831055,0.1230469,-0.9384766,-248.1832,-167.4046,-61.04581
-0.4150391,0.3125,-0.1884766,47.0458,-77.20611,48.00763
0.05712891,1.512695,3.632813,229.1145,250.1298,42.37405
-2.055176,0.0009765619,1.705566,-90.82442,-248.1832,-71.00764
0.05273438,-0.01904297,1.068359,-40.40458,222.0458,12.23664
-0.5380859,0.2875977,1.989746,20.91603,-146.8092,48.08397
0.000488281,-0.03857422,-0.2045898,-219.8244,-248.1832,73.63359
-0.5224609,0.7421875,-0.5146484,125.5115,112.2214,-41.33588
0.3022461,-0.05908203,1.057129,-138.3435,-135.3664,149.6794
0.6196289,-0.2426758,0.4038086,38.54198,-40.51145,-25.87023
0.25,-0.2407227,0.9711914,-4.793893,-0.7709923,-0.7022901
0.1396484,-0.2192383,0.8505859,54.20611,125.4046,1.923664
-0.6469727,-0.2700195,1.971191,-52.55725,-45.45802,-5.465649
-0.02246094,0.2138672,-0.6381836,-100.2595,-248.1832,-56.54198
0.2216797,0.09765625,0.2797852,147.8626,53.32824,-133.687
-0.7963867,-1.105957,2.885254,-76.12977,250.1298,-73.54198
1.182617,-0.9042969,1.738281,-45.96947,-248.1832,-29.57252
0.2114258,-0.2246094,0.9663086,-6.40458,-4.351145,-1.656489
-0.4707031,0.3583984,0.7519531,-52.75573,185.771,42.12214
-0.8217773,-0.2260742,1.999512,-87.00764,-118.9389,-10.91603
0.03662109,0.04492188,-0.612793,-45.2061,-80.82442,-31.30534
-0.1152344,0.5195313,-0.6147461,13.33588,-248.1832,-189.5496
0.1098633,-0.2470703,-1.396973,112.1221,250.1298,38.83969
1.177246,-0.4985352,1.758789,-55.51908,-125.9771,-58.22901
0.1083984,-0.07226563,1.046387,4.625954,-26.40458,97.17558
-0.3383789,-0.6884766,1.396484,-248.1832,200.3893,92.38168
-0.65625,-0.6650391,1.122559,-96.07633,-226.4198,-95.82442
0.02685547,0.1953125,0.001953125,176.4198,-170.8244,43.26717
-0.01611328,-0.01708984,0.2670898,-118.1221,46.34351,18.35114
0.7368164,0.9511719,-0.390625,-124.3435,250.1298,250.1298
-1.080566,-0.04443359,-0.1791992,3.885496,-42.0687,-3.877863
-1.050293,0.1069336,0.4980469,-39.85496,-118.458,-16.62595
-0.8369141,0.3896484,1.712402,-71.73283,-117.6718,56.67176
0.03417969,0.1713867,-0.05517578,-52.71756,-208.2672,50.37405
0.05029297,-0.005371094,0.1220703,-79.41222,107.0229,68.89313
-0.7177734,0.6035156,0.2470703,-73.28244,250.1298,99.29771
-0.1035156,-0.1416016,0.1357422,60.01527,-248.1832,-30.08397
-0.4770508,0.0009765619,1.137207,-6.91603,69.37405,6.541985
-1.313477,-0.5297852,0.871582,22.72519,-200.6336,-17.36641
0.1474609,0.2241211,0.03710938,-83.19084,-248.1832,6.900764
0.1015625,-0.005859375,-0.01367188,1.129771,51.8397,97.67939
0.6708984,0.7167969,0.07080078,3.908397,250.1298,144.8168
0.4423828,-0.2338867,1.091309,-45.23664,15.22137,4.946565
-0.3652344,-0.9921875,1.510742,-87.03817,250.1298,56.70229
-0.5864258,-0.2675781,0.4145508,-50.34351,-148.9618,-101.9313
-0.00390625,0.1162109,-0.015625,-20.61069,-171.5649,-17.64886
0.02392578,0.015625,0.1831055,-95.63359,-115.5496,52.96183
0.08251953,0.8085938,-0.2958984,44.64885,250.1298,123.7252
0.5537109,-0.184082,0.6855469,32.80153,22.55725,13.06107
-0.8325195,-0.9824219,1.794922,-152.0076,-25.80153,-20.42748
-0.1435547,-0.4042969,0.1796875,-13.80153,-176.0382,-16.20611
0.05761719,0.06347656,0.04541016,44.80916,-142.4657,75.19847
0.07958984,-0.008300781,0.1699219,-130.8931,125.374,-58.38931
-0.1894531,-0.005371094,0.0078125,-28.85496,250.1298,-36.54962
0.1386719,0.08154297,1.193848,-84.61069,0.9312977,168.9847
-0.5712891,-0.2514648,1.758789,59.22901,21.37405,48.70229
-0.3193359,0.05957031,0.9204102,-88.80153,-211.6641,13.64122
-0.03417969,-0.01318359,-0.2299805,-29.01527,-94.44275,50.89313
0.06494141,0.008789062,0.1386719,-126.8015,97.60305,-10.9542
-0.1616211,-0.01953125,0.4956055,-1.580153,250.1298,41.70229
-0.0703125,-0.2836914,0.2504883,79.24428,-248.1832,-41.98473
0.7265625,-0.3203125,2.05957,-51.65649,33.32824,56.74046
-0.7519531,-0.6430664,1.699219,72.20611,-105.0687,-23.60305
-0.07373047,-0.1298828,0.3007813,-19.24427,-168.0229,-66.229
0.04541016,-0.1494141,0.05908203,45.68702,-78.38168,-4.015267
0.05859375,-0.003417969,0.3393555,-79.22137,239.8931,-113.9466
-0.3266602,0.2470703,0.2617188,-136.9695,-108.542,-55.90076
0.01171875,-0.09033203,0.9042969,23.53435,-34.70992,100.4198
-0.7749023,-0.2807617,1.155273,75.93893,246.4962,33.13741
-0.5986328,-0.1821289,0.9389648,-110.3664,-216.6947,-36.83969
-0.0234375,0.1499023,-0.496582,-51.35878,-248.1832,0.5114504
0.1137695,-0.009765625,-0.07714844,-45.17557,78.08398,-23.29008
0.09912109,0.1333008,0.2006836,106.4504,64.45038,24.69466
0.5351563,-0.3178711,0.8930664,2.816794,250.1298,0.3969466
0.15625,-0.2734375,0.9189454,-1.458015,-2.946565,7.206107
-1.181152,-0.4418945,2.181641,93.96183,-37.34351,-61.19847
-0.00390625,-0.08789063,0.05664063,-30.42748,-137.3053,24.30534
0.1318359,0.06738281,-0.03027344,32.41221,-248.1832,45.44275
0.06347656,0.03466797,0.137207,-161.9542,154.7939,-65.1145
-0.1914063,0.3115234,-0.05029297,19.0916,250.1298,31.60305
-0.8193359,-0.5595703,0.06738281,-73.46565,-248.1832,-67.58778
-0.5273438,0.02880859,1.64502,-7.862596,250.1298,29.78626
-0.3740234,0.1103516,0.5327148,-99.55725,-193.1374,70.89313
0.1030273,0.03369141,-0.03955078,-114.0763,-248.1832,62.17557
0.1020508,0.006347656,-0.05078125,-144.5725,167.0153,-13.61832
-0.008300781,0.008789062,-0.06982422,214.7863,250.1298,2.755725
-0.6430664,-0.4345703,1.277832,36.06107,16.49618,-27.31297
-1.192871,-1.265137,2.507813,-26.8855,250.1298,65.01527
-0.4145508,0.1616211,0.3486328,-95.28244,-204.4657,-20.61832
0.3374023,-0.409668,-0.04296875,17.18321,-34.09924,59.29008
-0.01025391,0.04589844,0.1386719,-179.7786,-45.61069,-5.358778
1.618652,2.046875,2.276367,250.1298,250.1298,-1.946565
1.108398,-0.5063477,2.594238,-82.35114,-247.3512,-6.198473
0.08789063,-0.1015625,0.9306641,12.08397,71.98473,2.633588
-0.3188477,-0.8662109,0.7148438,-81.84733,39.96183,193.6641
-1.063477,0.1347656,0.7451172,-108.0305,-172.9542,8.580153
0.4316407,-0.1235352,-0.1186523,-148.5954,-6.38168,49.77099
0.08398438,-0.004882812,0.05078125,-112.2137,-54.24427,-77.99236
-0.2329102,0.01757812,0.1152344,125.458,250.1298,179.8931
0.4311523,-0.1044922,0.4267578,20.40458,54.85496,-9.763359
0.1884766,0.1547852,1.307129,-6.343512,72.74809,39.05344
-1.065918,-1.087402,1.565918,-19.38168,-70.32061,-13.38168
-0.2216797,-0.02392578,0.512207,-69.09924,-159.0153,31.03053
0.08496094,0.06152344,0.02490234,-45.43512,-230.6031,-41.36641
0.1743164,0.02490234,0.09326172,-148.1679,213.7023,-124.6641
-0.2832031,0.203125,0.05810547,19.74046,120.5038,16.50382
0.59375,-0.2060547,1.300293,34.03053,185.3206,35.39695
-1.340332,-0.3481445,1.135742,-180.0764,250.1298,84.96947
-0.6850586,0.4370117,0.6049805,-123.542,-248.1832,58.91603
0.152832,-0.2319336,-0.5561523,24.87023,-108.3359,73.32825
0.006347656,-0.0009765619,0.6748047,-57.87023,144.542,-243.8779
-0.09912109,0.1225586,0.3818359,-11.81679,176.3512,46.61069
0.1489258,-0.1425781,0.8530273,-16.48092,-31.19084,-4.832061
0.3374023,0.05419922,0.1875,68.96947,-83.10687,50.83206
-1.22168,-0.4272461,1.422852,-37.59542,-241.0076,28.32825
-0.08789063,-0.2543945,-0.2558594,-147.542,-235.3206,-48.03817
-0.1230469,0.3666992,-0.2285156,128.8626,107.5115,-11.34351
0.1972656,0.1005859,0.6948242,-66.13741,250.1298,-248.1832
0.06835938,0.4902344,2.199219,-195.7939,250.1298,90.0687
0.09082031,-0.2529297,0.9296875,-28.73282,41.03053,3.641221
0.2021484,-0.21875,0.934082,-2.870229,0.259542,-1.175573
0.2148438,-0.2177734,0.9609375,-3.381679,-0.1755725,-1.137405
-0.3530273,-0.4052734,1.184082,-68.85497,198.145,-1.748092
-0.7192383,-0.05419922,1.475098,-69.29008,-135.5496,-6.312977
0.08056641,-0.215332,-0.1201172,-66.83206,-93.66412,13.84733
0.02294922,0.05224609,0.1967773,-71.96183,2.59542,103.6489
0.1416016,0.03710938,0.1186523,-41.42748,156.3512,-233.1908
-0.4360352,0.2509766,0.01269531,22.78626,206.9695,-33.26717
-0.484375,-0.2983398,0.05126953,-52.22901,-248.1832,52.62595
-0.7529297,0.2182617,1.987793,29.92366,134.7176,108.5725
-0.1503906,0.1245117,0.1889648,-100.5802,-173.7634,86.69466
0.1245117,-0.1235352,-0.3051758,-101.3206,-159.4351,117.1069
0.02978516,0.02441406,-0.000488281,-206.458,-8.885496,-3.458015
0.3012695,0.04980469,0.2895508,120.542,87.43511,-153.1527
3.407715,-0.925293,1.751465,-174.1145,86.59542,129.2901
-0.9990234,-0.04345703,1.315918,83.67939,11.99237,-33.1145
-1.580566,-0.1914063,1.953125,158.0763,61.60305,55.48855
-0.4414063,0.2636719,0.4814453,-162.7786,-131.313,-57.78626
0.4277344,-0.2021484,-0.01367188,1.48855,-44.86259,16.74046
-0.02392578,0.04785156,0.2080078,-129.9008,-16.83969,2.557252
1.131348,1.229004,1.298828,250.1298,250.1298,-29.19084
-0.1899414,-0.3354492,1.183105,-91.28244,-248.1832,-62.80153
0.675293,-0.05566406,0.9785156,-6.633588,128.6183,14.1145
-0.1958008,0.1083984,1.248535,145.374,94.57252,-2.59542
-1.200684,0.4038086,0.3320313,-93.91603,-192.4504,-122.0229
0.2773438,-0.006347656,-0.1665039,-172.5649,-143.7557,-107.6031
0.06103516,0.01367188,0.1098633,3.290076,84.74809,-23.48092
1.597656,-10.86035,5.468262,250.1298,250.1298,-248.1832
0,-0.3266602,1.727539,-26.9771,-248.1832,-46.15267
0.1582031,-0.2802734,0.7070313,18.78626,73.78626,25.75573
-0.06640625,-0.2963867,1.225586,-102.0534,79.9542,26.93893
-0.418457,-0.9375001,1.525391,39.19084,-102.7481,-40.16794
0.02685547,0.1821289,-0.1625977,-2.160305,-91.38168,2.442748
0.09179688,0.04638672,0.1005859,26.62595,-124.0534,60.1832
0.1616211,0.05517578,0.3408203,-66.61069,250.1298,-207.1145
-0.8505859,0.03222656,0.2265625,-58.33588,-248.1832,-84.32061
0.2583008,-0.1635742,1.066406,-2.80916,-7.992366,-2.938931
-0.440918,-0.7875977,1.672852,-82.06107,250.1298,97.72519
-1.242188,-0.2612305,1.295898,-4.610687,-248.1832,-23.42748
0.03613281,0.1245117,0.02441406,-43.30534,-248.1832,248.1527
-0.04589844,0.009765625,-0.02636719,-220.5878,-31.0229,38.32061
5.630371,1.458008,-4.052246,-192.3206,-248.1832,-215.5954
0.7573242,-0.125,-0.6264648,87.05344,12.1374,37.59542
2.152832,-0.402832,-0.9213866,-30.25191,-0.2671756,-117.1908
1.192383,-0.8012695,0.1674805,-111.3206,250.1298,250.1298
0.3085938,-0.315918,0.7373047,81.87023,-11.9084,-7.648855
0.009765625,0.07666016,-0.006835938,77.63359,-179.5725,109.2595
0.1464844,-0.02539062,0.1123047,-27.00763,28.8855,32.15267
-0.2524414,0.1606445,0.8603516,-63.75573,11.61832,-143.626
-0.5883789,-0.3066406,0.4257813,-17,-45.26717,-10.20611
-0.6606445,-0.4873046,0.5268555,-5.160306,-3.160305,-2.229008
-0.5546875,-0.5019531,0.6166992,-6.633588,2.450382,-9.045801
-0.9003907,-0.3647461,0.1533203,-9.648855,-6.007634,35.53435
0.1113281,-0.06103516,0.8657228,-148.2672,-123.229,-40.45802
-1.282715,-0.8066406,0.8803711,2.458015,-174.2901,186.1145
-0.5913086,0.2143555,1.099609,-96.57252,-108.7786,-2.389313
0.25,-0.262207,0.2216797,1.282443,-72.62595,-35.89313
0.001953125,0.04199219,0.1362305,-81.68702,-5.80916,1.419847
0.6777344,1.092773,2.574707,192.2061,26,-41.09924
0.890625,-0.9121094,1.767578,-122.8931,37.29008,11.21374
0.6943359,-0.01367188,1.257813,-21.20611,149.2137,111.2977
-0.8916016,-0.1171875,1.711914,66.0687,-168.7481,65.50381
-0.05712891,-0.06347656,0.3769531,-77.37405,-131.0992,-22.89313
0.1450195,0.02539062,0.1474609,15.87023,25.79389,17.16794
0.01904297,0.04492188,0.206543,-159.4657,-28.17557,-98.90839
-0.3286133,0.2089844,0.07373047,90.0458,250.1298,89.62595
0.4941407,-0.2407227,1.243164,25.60305,144.1832,34.25954
-0.3823242,-0.362793,1.023926,-126.916,10.0458,49.38931
-0.7519531,-0.4501954,1.313477,-34.0229,-195.9466,7.687023
0.06298828,0.07226563,-0.1713867,13.80153,-39.48092,5.374046
0.078125,0.04833984,0.1181641,-43.69466,-85.78626,92.46565
0.1479492,0.03564453,0.4799805,35.19847,250.1298,-181.5191
-1.08252,-0.03417969,0.1005859,-35.12977,-248.1832,-85.83969
0.1777344,-0.2236328,1.235352,25.74046,75.14503,66.38931
-1.479492,-0.8764648,1.65332,34.58016,-230.3282,59.91603
-0.2495117,0.1025391,0.1533203,-47.52672,-161.3206,13.53435
-0.05566406,0.1176758,-0.05175781,41.30534,34.33588,-3.022901
0.1811523,0.05664063,0.3476563,-196.3969,56.49618,-240.5496
-0.4785156,0.206543,0.1352539,-107.916,-46.30535,-73.15268
0.1113281,-0.07324219,1.193848,23.77099,151.1756,13.8855
-0.09960938,-0.3657227,1.147949,-96.64122,250.1298,51.54198
-1.192383,0.3261719,0.9658203,-64.229,-217.0382,63.54198
0.1967773,-0.0234375,0.1245117,-32.14504,-78.08398,1.267176
-0.1523438,0,0.1430664,-31.45038,35.34351,32.30534
0.1831055,0.1318359,0.2875977,-146.5573,158.2061,-190.0534
-1.139648,-0.3222656,-0.2060547,-30.70992,145.4886,-36.0687
-0.6010742,-0.05029297,0.4819336,-2.473282,-248.1832,7.068702
-0.734375,-0.262207,1.806641,-32.44275,-69.9771,76
-0.3183594,-0.01904297,0.7939454,-87.12977,-195.9847,70.74046
-0.06347656,0.001464844,0.07177734,14.06107,-38.13741,-16.49618
0.1552734,0.02001953,0.1787109,-189.8549,49.31298,-78.48855
-0.2963867,0.1118164,-0.05419922,-111.687,250.1298,-43.0229
-0.6000977,0.1772461,-0.8549805,-91.32061,250.1298,21.84733
-0.05517578,-0.03613281,-0.925293,7.366412,20.68703,5.374046
-0.2773438,0.1245117,-1.323242,8.78626,-65.21374,-40.62595
-1.212402,0.2314453,0.09619141,-13.71756,-248.1832,9.297709
0.006835938,0.07861328,0.03613281,-45.41984,-220.9389,10.19084
0.3886719,0.03222656,-0.06884766,-76.87787,-71.54198,62.84733
0.2485352,-0.01318359,0.1704102,-45.89313,-232.3206,-131.855
-0.621582,-0.06689453,-0.1015625,-14.69466,99.8855,-23.74809
0.6665039,-0.222168,0.8041992,23.58015,108.9924,47.67939
0.4663086,0.03466797,1.132813,24.30534,198.9389,-18.09924
-1.228516,-0.08154297,1.394531,19.89313,-181.1985,7.908397
0.08935547,0.02392578,0.2460938,-27.26718,-87.35878,-18.45038
0.1953125,-0.09667969,-0.1538086,19.42748,8.900764,-0.5267176
0.2480469,0.1616211,0.3217773,-173.8855,100.9313,-75.34351
-0.8286134,0.2695313,0.8652344,-217.9924,-248.1832,-75.51146
-0.2348633,-0.2089844,1.105469,-21.79389,-20.72519,-55.53435
-0.246582,-0.7998047,0.8305664,47.71756,250.1298,48.33588
-0.6801758,-0.2260742,1.218262,53.22137,-241.4962,-1.076336
0.1074219,-0.2773438,-0.4404297,-90.0229,-164.1145,-28.40458
-0.137207,0.1621094,0.2001953,3.740458,77.1832,28.93893
0.2392578,-6.03125,0.03125,250.1298,250.1298,-248.1832
-0.8652344,-0.4741211,0.8330078,-80.41222,-248.1832,-63.09924
0.3579102,-0.1694336,0.9121094,19.34351,23.14504,-2.022901
-0.1694336,0.1713867,-0.4267578,5.564886,250.1298,-81.65649
-1.226074,-0.09472656,1.193848,7.70229,-133.7863,-26.64122
0.2719727,0.1235352,-0.08593751,-7.015267,-69.20611,24.91603
-0.3808594,0.171875,-0.3798828,-104.5115,-248.1832,-43.61832
0.262207,0.02197266,0.08056641,235.9008,250.1298,220.0382
-0.3061523,-0.2011719,0.8959961,-84.90076,-248.1832,-83.60304
0.5615234,-0.09863281,1.934082,-9.175572,137.8397,-16.22137
-1.128906,-0.03076172,0.859375,25.19847,-229.0534,-68.58015
0.5253906,-0.1772461,-0.4926758,37.58015,-143.771,-15.09924
-0.6191406,0.1533203,-0.3139648,-2.427481,-135.4962,-143.8397
0.01123047,0.1616211,0.1416016,92.43511,250.1298,250.1298
-0.02490234,0.1518555,0.534668,52.80916,241.6412,-146.7023
0.4780273,0.4326172,1.272461,-60.1145,250.1298,0.7251908
-0.9638672,-0.9921875,1.383789,-127.8855,-177.2137,12.41985
0.01269531,-0.1616211,0.152832,32.26717,-203.9389,-36.54198
-0.02001953,0.1977539,-0.4814453,116.5649,-5.984733,-41.35878
0.3769531,0.06347656,0.1611328,-126.3664,-33.0229,-178.3435
-0.1152344,0.1508789,-0.4321289,-28.82443,250.1298,166.1069
0.8364258,-0.6577148,-0.7050781,-31.62595,-15.1145,-21.98473
0.1904297,-0.3842773,-0.9228516,-18.1145,-86.63358,4.763359
0.2001953,-0.2006836,-0.9204102,-4.435114,18.38931,9.458015
1.730469,-1.797852,-1.289063,-16.77863,-65.15267,-49.03817
-1.282227,-0.2773438,-1.320801,32.82443,250.1298,-9.717557
0.2358398,-0.3754883,-1.026367,23.41221,-113.9695,1.396947
-0.2133789,-0.002441406,-1.301758,-99.44275,-17.64886,-30.41985
-0.6259766,-0.4511719,-1.875,126.4962,-248.1832,45.54198
0.2880859,-0.06396484,0.3681641,-29.9084,-44.51908,42.39695
-1.295898,-0.01171875,1.612793,-22.71756,151.5038,-30.99237
-0.7265625,-0.07373047,0.5751953,-16.72519,-249.2137,-25.1145
0.2036133,0.1025391,-0.5688477,44.42748,-97.96183,-8.519084
0.1738281,-0.1025391,0.08496094,-10.8855,-248.1832,-169.8779
-0.6079102,-0.1318359,-0.08691406,-114.0534,250.1298,206.9847
-0.8120117,-0.2441406,-0.3818359,-18.77099,204.7557,30.43511
2.29834,0.1513672,-0.5083008,193.5649,250.1298,230.2443
0.7963867,-0.265625,0.2060547,42.56488,87.01527,-62.41985
0.8813477,-0.4208984,1.061523,-83.73283,-248.1832,-36.53435
-0.5097656,0.08007813,-1.234863,125.2595,-248.1832,-77.12977
0.2807617,-0.1264648,-0.3237305,-39.19084,-160.5725,78.50381
0.07910156,-0.01220703,0.1020508,8.832061,127.3893,-110.4733
-1.304199,-0.9116211,1.441406,-0.3129771,-111.2137,-41.13741
0.007324219,-0.008300781,-0.4780273,-189.5267,-185.6183,-29.51908
-0.1152344,0.2304688,-0.6728516,190.3588,110.9695,-39.55725
0.1435547,-1.394043,4.236816,-47.49618,250.1298,59.74046
0.9394531,-0.09179688,1.412109,4.610687,-95.52672,-9.770992
0.1806641,-0.2832031,1.21875,-20.34351,122.5649,11.42748
-0.8759766,-0.7832031,1.541016,41.41221,-132.7328,11.68702
0.1157227,-0.2089844,0.2568359,10.81679,-112.5267,-47.03053
0.1669922,0.07617188,0.2363281,43.98473,68.67939,-5.274809
-0.006835938,0.05615234,0.2202148,-198.4275,-69.85497,-137.9695
-0.2060547,0.1313477,-0.03759766,-19.13741,250.1298,150.5267
-1.012207,-0.4086914,1.377441,60.99237,-248.1832,-3.229008
-0.3266602,0.07177734,1.617676,-20.81679,-52.39695,6.923664
-0.9370117,-0.1064453,1.209961,32.47328,-78.44275,63.15267
0.02929688,-0.01464844,0.5283203,27.74046,-60.00763,30.64886
-0.03417969,0.05566406,0.05615234,-142.4275,-165.9924,26.79389
0.6879883,-10.94775,-2.995117,4.603054,35.00763,-248.1832
0.2875977,0.3774414,0.8100587,-164.6488,-248.1832,106.2748
0.07080078,-0.3085938,0.675293,26.66412,90.23664,13.38931
1.021973,0.07666016,1.371094,16.78626,-21.16031,-56.34351
-0.2373047,-0.2231445,0.6245117,56.17557,-25.9084,37.01527
0.08642578,-0.1977539,0.3012695,40.46565,59.17557,1.374046
0.04101563,0.02539062,0.1352539,-212.4504,-248.1832,5.687023
0.8935547,0.2485352,-1.412109,51.65649,250.1298,250.1298
-0.8129883,0.3867188,0.04541016,31.34351,-162.0992,-20.83969
0.04492188,0.078125,1.223145,74.13741,119.542,-35.28244
0.3427734,0.1899414,1.769043,-116.313,12.19084,-7.114504
-0.2060547,-0.2734375,0.6772461,22.12214,-60.24427,-9.793892
0.015625,-0.004882812,0.112793,39.91603,20.67175,20.68703
0.07128906,0.009765625,0.1464844,-183.3359,-219.8168,-59.99237
-0.4916992,0.2202148,0.03466797,-123.5573,250.1298,-13.16031
-0.9707031,-0.04541016,-0.2636719,8.80916,23.80153,4.839694
1.625977,-0.06933594,2.548828,-160.1527,-173.4046,-18.32061
0.08593751,-0.2148438,1.020996,-9.389313,35.36641,-36.9084
0.7583008,0.6835938,2.018066,-121.3359,-7.770992,113.7023
-0.3427734,-0.1826172,0.8549805,22.92366,-176.1069,53.29771
0.1928711,0.05761719,-0.1079102,33.51145,-42.58016,8.206107
-0.07666016,0.06494141,0.3769531,-150.4657,-5.839694,-48.62595
-0.1044922,0.1333008,0.2304688,-132.0992,-70.74046,-3.068702
-0.1030273,-0.1186523,0.793457,6.366412,13.0687,-0.8091603
-0.4599609,-0.1083984,0.8085938,-2.068702,-34.87786,2.687023
-1.233398,-0.5483398,0.8208008,-42.20611,250.1298,-40.44275
-0.8183594,-0.2524414,0.5166016,22.06107,-211.1985,-3.816794
0.2749023,0.1020508,-0.2368164,19.07634,-169.8397,42.12214
-0.5629883,-0.07861328,-0.3901367,-103.7099,-248.1832,-92.34351
0.1616211,0.03271484,0.4951172,87.48092,250.1298,239.6412
-0.01904297,-0.1967773,1.034668,-15.75572,98.36641,5.694656
-0.02783203,0.1132813,1.46875,24.78626,152.5191,14.58015
-1.117676,-0.8295898,1.231934,-72.16794,217.0611,-70.0458
-0.5048828,-0.3842773,0.5786133,129.6488,-102.5878,-63.19084
0.09179688,0.1650391,-0.08105469,46.1832,-102.4198,40.62595
-0.71875,-0.2783203,-0.5126953,-117.9695,-57.41985,-59.1832
-0.625,0.3383789,-0.4594727,-187.2901,250.1298,-85.61832
-0.2197266,-0.2788086,-0.6015625,-109.5267,80.85497,52.62595
-0.1230469,-0.006347656,-0.9814453,-4.610687,-3.679389,-1.030534
1.729004,0.2666016,-0.7216797,-67.25954,91.52672,163.7252
0.6933594,-0.2119141,1.081543,11.18321,-13.33588,-3.748092
0.6586914,-0.1289063,0.6484375,14.23664,-52.94656,-19.32825
0.2636719,0.01416016,0.02783203,-25.13741,69,-7.946565
-0.03222656,-0.07519531,-0.1547852,-20.87023,-239.5954,20.94657
-0.1430664,0.001953125,0.15625,63.85496,35.99237,25.0687
0.3686523,-0.06591797,0.5415039,29.94656,13.92366,38.9313
0.2480469,-0.2275391,0.8574219,-9.725191,22.86259,1.305344
0.2055664,-0.07470703,1.457031,4.977099,114.2748,-4.603054
-1.205078,-0.5878906,0.9785156,-52.1145,-219.5496,24.44275
0.09375,-0.06201172,0.05029297,104.9389,-100.7634,-19.99237
-0.01660156,0.05224609,-0.9018555,-75.229,16.9313,-49.41221
-0.6054688,0.1289063,0.6030273,45.35115,-164.5038,163.1985
0.9194336,-1.228516,2.492676,-48.45038,-248.1832,-40.48854
-0.2373047,-0.3447266,2.34375,-13.8626,250.1298,19.25954
-1.081543,-0.3813477,0.1611328,53.10687,-249.9695,-61.05344
0.4375,0.1455078,-0.4267578,69.36641,-36.83206,-11.87023
0.003417969,0.1079102,0.5786133,-1.78626,-248.1832,-248.1832
-0.7954102,-0.7529297,0.5332031,-3.877863,-248.1832,-72.76336
0.1425781,-0.1328125,0.9375001,-10.29771,-2.328244,3.389313
-1.564453,-0.9135742,1.681152,-109.5573,48.01527,-137.8779
-0.1186523,-0.1582031,0.2124023,103.7023,-135.771,-21.0687
0.2075195,0.08105469,0.3852539,49.07634,-22.62595,-35.57252
-0.9140625,-1.041504,-1.228027,-114.8015,-230.8779,-41.78626
-0.7016602,-0.6376953,0.1342773,-23.38168,-27.08397,-84.96947
-0.1474609,-0.1455078,1.109863,3.80916,-21.00763,21.28244
-0.3237305,-0.1015625,1.119629,-9.770992,-21.66412,-8.572519
-0.1499023,-0.1484375,1.536133,-100.9847,250.1298,2.076336
-0.4614258,-0.3813477,0.796875,39.59542,-145.7023,-43
0.2626953,0.1040039,-0.1367188,52.15267,-41.69465,-21.83969
-1.136719,-0.5673828,-0.5849609,-197.1832,-117.4809,-73.8855
-0.1518555,0.1279297,-0.2011719,-68.23664,250.1298,72.61832
-0.3857422,0.01220703,-0.8945313,-46.58779,250.1298,5.687023
0.07421875,0.07128906,-1.151855,-0.6183206,-0.2061069,-0.6030535
-1.619141,-0.3813477,-0.3779297,-127.9084,-151.4427,-76.64886
-0.6958008,-0.5146484,-0.2832031,108.4733,-248.1832,-52.38931
0.2514648,-0.03271484,0.08886719,127.2443,-145.6641,50.67939
-0.2880859,-0.03320313,-0.0625,11.32061,-248.1832,-120.4046
0.002929688,0.375,-0.07177734,-128.542,250.1298,250.1298
0.1459961,0.1923828,-0.4326172,76.73283,250.1298,128.1908
0.2382813,0.05664063,-0.2548828,-14.77099,-231.2061,73.51145
0.5976563,-0.1235352,-0.4868164,-12.85496,-170.7099,-1.755725
-1.42041,-0.2446289,-1.006836,162.6336,-248.1832,-106.0992
-1.044434,-0.1489258,-0.02587891,44.28244,-248.1832,-110.458
0.5224609,0.05908203,-0.262207,48.91603,-93.46565,-34.89313
-0.5751953,0.1225586,-1.180664,0.09160305,-248.1832,-102.6489
0.4731445,0.04296875,0.1513672,127.0076,250.1298,250.1298
0.5644531,-0.190918,0.706543,-9.129771,88.58778,24.48092
0.9052734,-0.109375,2.32666,-24.14504,250.1298,-27.93893
-0.03271484,0.01220703,-0.04345703,80.30534,37.19847,-37.9313
-0.2182617,-0.02783203,-0.07666016,-11.29008,-98.0458,58.66412
-1.738281,-0.1796875,-0.1879883,-74.76336,121.8397,-29.98473
-0.6479492,-0.3305664,0.2167969,100.6107,-248.1832,49.52672
0.2944336,0.08105469,-0.5180664,79.46565,-62.62595,-23.31297
0.02441406,0.000488281,0.7045898,-186.0534,-149.9466,-129.2443
0.09814453,-0.1513672,0.5463867,-185.6107,-162.916,35.65649
0.1000977,-0.2353516,0.9926758,-13.10687,-51.00763,-6.335878
-1.386719,-0.4375,1.68457,69.229,73.62595,48.69466
-0.3276367,0.01806641,0.309082,-27.17557,-216.0916,-87.87023
0.4291992,0.1459961,-0.5063477,36.49618,36.0458,-25.52672
0.4741211,0.1181641,2.067871,19.61832,250.1298,-248.1832
-0.02783203,-0.8520508,2.09668,-123.5954,-248.1832,-26.53435
0.3154297,-0.05029297,1.427734,38.25954,141.3969,-60.66412
-0.9033203,-0.08251953,0.7548828,-40.96947,-160.4427,-55.45038
0.2939453,0.02197266,0.2412109,4.183206,-8.763359,-22.74809
-0.09375,0.06738281,0.05957031,-167,-72.19084,-53.62595
2.830566,-2.15332,7.416992,250.1298,-75.80153,-81.75572
0.01074219,-0.3173828,0.2792969,42.89313,162.1221,7.89313
0.08203125,-0.1708984,0.5185547,-15.26718,48.14504,16.41221
-1.207031,-0.6152344,1.782715,27.29008,-102.1679,-18.87786
-0.1357422,0.02001953,0.1357422,-65.56489,-118.0076,-35.25954
0.05712891,0.09570313,-0.2763672,63.96947,4.053435,15.9542
0.03759766,0.01269531,0.2817383,-153.4198,-55.55725,-231.313
-0.1699219,0.1733398,0.09082031,-66.9313,250.1298,25.31298
1.385254,-0.1181641,-0.8422852,120.8473,-204.4351,73.29008
-0.4926758,-0.222168,0.1669922,-23.93893,238.9924,21.33588
-1.47168,-0.2880859,1.492188,-73.29008,-249.9847,134.916
-0.3388672,-0.08789063,0.2856445,-140.1374,-197.4657,-11.21374
0.28125,0.01269531,-0.09228517,53.12977,22.9771,2.374046
-0.005859375,0.015625,0.2675781,-152.4657,4.954198,-135.8168
-0.4238281,0.2104492,0.03173828,-68.74046,250.1298,-54.9542
-0.7094727,-0.1445313,0.3076172,39.91603,-248.1832,9.702291
-1.037109,-0.3896484,1.827637,-15.0229,250.1298,-16.77863
-0.6430664,0.02148438,0.4301758,-82.77863,-248.1832,-0.007633588
0.3798828,-0.1699219,-0.2285156,68.03817,-17.1145,13.19084
-0.01464844,0.02636719,0.2260742,-105.6031,61.65649,-48.56488
3.283203,1.728027,5.557129,224.5038,250.1298,18.1145
0.9506836,-0.3637695,0.6333008,-26.43511,102.9618,5.51145
0.3393555,0.1767578,1.146484,14.48092,58.54962,14.27481
-1.02832,-1.170898,1.474609,34.20611,-248.1832,-33.0687
0.01416016,-0.05078125,0.421875,-51.74809,-196.0611,-52.08397
0.5234375,-0.1787109,-0.3989258,40.31298,-37.0916,27.19084
-0.01367188,0.02783203,0.2148438,-45.40458,122.7023,-41.34351
7.489746,-7.725098,15.99951,250.1298,-204.9618,-69.78626
-1.080078,-0.8115234,1.972168,-105.6641,-248.1832,-74.57253
0.1801758,-0.3452148,1.062012,-6.442748,250.1298,53.66412
-1.039551,0.01123047,0.8876953,-57.54962,-238.6336,-42.53435
0.2055664,-0.1547852,0.08935547,16.36641,-11.47328,34.46565
0.09521483,0.1381836,0.3046875,-138.6107,3.877863,79.01527
0.1855469,-0.1083984,0.4848633,167.6718,250.1298,-168.5954
-0.3022461,0.1860352,0.1645508,-74.45038,-203.771,-122.9618
0.1523438,-0.1313477,0.9707031,-5.251908,-10.20611,0.6412214
-1.663574,-0.7397461,1.294434,-32.9542,-243.313,13.38168
0.1108398,-0.05078125,-0.265625,26.65649,-109.6107,-41.72519
-0.3588867,0.2075195,0.1064453,-4.664122,37.46565,28.87786
0.1777344,0.002929688,0.1142578,-192.6718,0.961832,-177.5649
-0.3037109,0.2045898,0.1401367,-32.19084,250.1298,12.38168
0.652832,-0.2285156,0.4980469,-8.885496,71.24428,88.27481
-1.959961,0.1362305,1.599609,-19.45038,-50.61069,11.22137
-0.4042969,-0.1713867,-0.04248047,-15.76336,-218.313,-21.32061
-0.1914063,0.4160156,-0.2763672,-50.20611,-17.99237,213.7176
0.09912109,-0.03662109,0.02148438,-188.542,-215.7176,-147.1985
-0.2426758,0.762207,-0.01269531,-30.73282,250.1298,233.5878
0.03222656,-0.5527344,0.8867187,-14.91603,21.22901,-42
-0.4462891,0.1064453,1.08252,9.816793,250.1298,-173.3664
-1.239746,-0.1088867,0.503418,-13.73282,-224.7176,31.9313
0.1323242,0.09912109,0.2749023,-11.9084,-21.91603,57.16031
0.1894531,-0.1118164,0.9780273,13.99237,-9.389313,11.43511
0.3515625,-0.1699219,1.063477,-25.45802,-4.89313,-0.03816794
0.6738281,-0.3876953,1.334961,-5.412214,-41.92366,-7.679389
0.3076172,-0.2651367,0.1831055,2.664122,-66.41985,15.60305
0.07666016,0.2016602,-0.2133789,22.56489,42.0916,20.44275
0.09082031,-0.01171875,0.2871094,-111.855,-115.6565,-22.87023
-0.6567383,-0.2783203,-0.02490234,-1.10687,-47.51146,-40.57252
0.527832,-0.3442383,0.8208008,44.60305,107.8092,52.21374
-0.7138672,-0.2924805,1.206055,-151.5114,250.1298,78.14503
-0.3725586,-0.08984375,0.7172852,-78.98473,-194.771,7
0.2426758,-0.01757812,0.09277344,28.18321,-22.06107,-17.83206
0.02050781,0.1381836,0.5288086,17.06107,115.2901,-32.03053
0.1469727,0.04296875,0.3901367,-108.8397,-130.7252,-22.40458
-0.1591797,-0.01708984,0.5483398,-146.6107,-248.1832,-64.29771
0.484375,-0.1098633,1.290527,-3.862595,147.2977,-3.435114
-0.4707031,-0.9858398,1.839844,55.08397,-11.9542,-46.22137
-0.04003906,-0.04638672,0.1499023,-50.8168,-188.2824,-81.01527
0.1040039,-0.06494141,-0.3061523,71.67175,30.35878,15.9084
0.1806641,0.04101563,0.4614258,-204.2137,90.45802,-153.1832
-0.1152344,0.1567383,0.375,-36.0687,-248.1832,-4.541985
0.4863281,-0.1459961,1.126953,-8.748092,22.16031,8.244275
-0.7646484,-1.295898,2.124023,13.60305,-197.3512,37.38931
-0.1967773,0.08593751,-0.4526367,-0.4885496,-205.0992,-72.03817
0.2719727,0.02880859,-0.2587891,89.80153,63.56488,29.33588
0.1206055,0.08349609,0.2836914,-234.8473,-71.70992,-223.0305
-0.05224609,0.3125,0.0625,-177.7634,-58.1145,166.3359
0.02246094,-0.1357422,0.9526367,-7.427481,12.19847,0.5419848
-1.562012,-0.5249023,1.993652,-59.85496,-218.3282,130.2824
-0.2441406,-0.1274414,0.2016602,38.72519,-156.3282,-80.43511
0.5473633,-0.1162109,-0.2797852,70.12214,37.25191,64.47328
0.078125,-0.01757812,0.1357422,-186.5343,-243.1069,106.0763
0.2402344,-0.1005859,-0.07226563,250.1298,250.1298,36.96947
-0.125,-0.109375,0.6391602,-8.068703,-116.4046,-51.9313
0.6977539,0.3193359,2.988281,58.49618,250.1298,-52.61832
-0.8242188,-0.2841797,0.503418,-12.57252,-192.9389,-56.25954
0.3549805,-0.009277344,0.265625,38.65649,-35.31298,5.305344
-0.04150391,0.007324219,0.2626953,-138.4046,-183.7481,30.19847
3.796387,1.630371,3.521484,250.1298,250.1298,-232.0381
0.1523438,0.5385742,0.7338867,-183.2519,-248.1832,81.73283
-0.1098633,0.1972656,1.092773,15.85496,35.79389,1.534351
-1.842773,-0.4975586,0.8642578,-37.41221,-86.16794,-71.229
0.1069336,-0.07421875,0.05517578,72.29771,-123.1756,-23.01527
-0.2929688,-0.6674805,-0.7021484,103.5115,-91.12977,144.2595
0.1552734,0.02734375,0.06835938,-248.1832,-248.1832,39.25954
0.0625,0.09619141,0.001953125,247.6488,250.1298,-14.70992
1.080078,0.1552734,0.4731445,-37.61069,198.0534,-248.1832
0.1069336,0.1235352,1.12207,-100.5496,133.7023,-41.33588
-0.6767578,-0.4990234,1.501465,-248.1832,244.4351,23.52672
-0.6967773,0.03466797,0.409668,-142.5038,-237.9237,-37.73283
-0.01269531,0.125,-0.15625,95.16031,37.96947,1.450382
0.04882813,-0.000488281,0.2148438,-201.2672,-6.389313,-91.45802
-0.2104492,-0.02441406,0.01416016,-50.07634,249.6488,61.79389
-0.4306641,0.2231445,0.8120117,30.42748,-248.1832,-11.73282
-1.14209,0.1000977,1.387207,-11.74809,213.7557,80.91603
-0.4399414,-0.06689453,0.1171875,-44.61832,-248.1832,-56.51145
0.3920898,-0.1308594,-0.1254883,63.35115,-30.92366,80.64122
0.07128906,0.001953125,0.4311523,-140.6718,-182.8321,-124.8397
0.04785156,0.006835938,0.07714844,104.9924,250.1298,159.2443
0.2768555,-0.09472656,1.155762,-17.47328,-1.007634,3.198473
-0.06396484,-0.4892578,0.4208984,-86.09924,65.67175,30.48092
-0.8164063,-0.5771484,1.684082,-95.58778,-153.9313,43.65649
-0.05810547,-0.08886719,0.1767578,-49.22137,-219.5496,-38.15267
-0.01318359,0.1474609,-0.2539063,105.229,29.34351,54.70229
0.2490234,-0.0009765619,0.08007813,-126.4504,-94.62595,-49.45802
-1.226074,-0.05273438,-0.02050781,-7.167939,113.8321,-193.4733
0.03271484,-0.02294922,-0.3125,-208.2519,250.1298,-55.03053
0.2802734,0.02490234,-0.6699219,-20.89313,-42.67176,-3.465649
-0.1479492,-0.1064453,-1.17334,-43.60305,-142.084,-104.6641
-0.06689453,0.1577148,-0.3789063,1.778626,-248.1832,-158.5496
0.4824219,-0.001953125,2.500977,-31.19084,-34.05344,12.62595
-0.7563477,0.2050781,0.3808594,-248.1832,-87.13741,-12.81679
0.09667969,0.1538086,-0.5634766,68.67939,7.549618,-35.32824
-0.3974609,0.1948242,0.6669922,36.17557,110.3359,-225.5038
-0.8007813,-0.1123047,0.7695313,59.9313,-115.1069,65.40458
-0.02392578,-0.140625,0.9858398,-0.5343512,-0.9465649,-1.80916
-0.7797852,-0.6621094,0.8833008,-119.6031,128.1374,86.19847
-0.5742188,-0.5493164,1.546387,-48.58779,-248.1832,-45.94656
0.04345703,0.09130859,-0.5336914,-29.12977,-185.6488,-36.77863
-0.277832,0.1733398,-0.3676758,65.07633,130.6107,-37.38931
0.3964844,0.2705078,0.862793,-228.6565,89.67939,-248.1832
1.375,-0.559082,0.6303711,-67.41985,164.5802,15.99237
-0.1806641,-0.1762695,1.320313,-35.64122,211.5496,52.49618
-1.075684,-0.2314453,2.017578,-26.77099,-248.1832,2.572519
0.1030273,0.1083984,-0.449707,-94.12977,-184.7328,-53.06107
-0.3823242,0.07666016,-0.4169922,70.87786,117.5267,-17.19847
0.2978516,0.222168,0.8276367,-146.6183,67.91603,-248.1832
-0.04296875,-0.1108398,0.5166016,2.862595,60.75573,1.763359
-0.2895508,-0.4008789,1.388672,-42,161.855,108.6641
-0.9311523,-0.909668,1.612793,97.69466,-156.5573,-13.38168
-0.08203125,-0.09033203,-0.05175781,-45.99237,-248.1832,-30.86259
-0.09765625,0.05175781,-0.4384766,93.37405,63.51146,0.6183206
0.3964844,0.03955078,1.807617,-125.2061,192.6107,-173.4733
-0.6401367,0.2749023,2.128906,46.00763,-114.9313,-12.91603
-0.03222656,-0.1757813,1.073242,-6.419847,9.46565,0.007633588
-1.067871,-0.6362305,1.692383,-11.21374,-190.229,-21.05343
0.199707,0.046875,-0.4663086,15.38168,-173.3664,-80.28244
-0.1289063,0.06103516,-0.2592773,40.0458,154.1374,-17.25191
0.2578125,0.1542969,0.4560547,-143.313,-41.38931,-248.1832
-0.2954102,-0.3540039,0.7910156,-14.30534,-40.78626,-14.9542
0.07373047,-0.144043,1.074707,-15.10687,31.51145,2.160305
-0.3554688,-0.8662109,1.38916,-140.9313,-63.0229,24.84733
0.1274414,-0.07080078,-0.08447266,-52.54198,-245.4275,54.73283
0.02246094,0.07226563,-0.2836914,80.45802,58.20611,-7.122138
0.01416016,0.01171875,0.5693359,19.16794,-15.45802,-248.1832
1.209473,-1.575195,4.784668,-6.847328,-112.1069,-41.0687
0.1542969,-0.1567383,0.9624023,-3.526718,1.40458,-0.5343512
-0.3833008,-1.292969,1.268555,-79.71756,-165.4504,-50.12214
-0.04345703,-0.1958008,0.1469727,-62.77863,-214.9466,-26.29008
0.07763672,0.05908203,-0.6025391,106.7099,38.35115,-39.80916
0.03125,0.04736328,0.6157227,42.99237,10.28244,-248.1832
-0.1513672,-0.3105469,0.1113281,93.32825,-246,-83.93893
0.4111328,-0.1586914,1.038574,-55.67939,86.31299,13.15267
-0.7753907,-1.141113,1.770508,68.64886,-103.7099,30.35114
-0.1401367,-0.007324219,0.02441406,-72.55725,-248.1832,-39.25954
-0.00390625,0.02832031,-0.5371094,79.65649,34.59542,-34.33588
0.1381836,0.1162109,0.7724609,-45.45802,-12.0916,-248.1832
-0.4619141,-0.7993164,0.3730469,144.8015,-248.1832,-105.6031
0.01269531,-0.378418,0.8520508,-21.0916,76.42748,8.480916
-1.582031,-1.909668,1.76416,-7.366412,-76.28244,9.282443
-0.1181641,-0.2529297,0.3535156,-45.74046,-227.9008,-33.9313
0.06738281,0.1054688,0.001953125,97.54198,-29.12214,161.5114
0.01611328,-0.01708984,0.1816406,-160.1679,-42.50382,38.17557
-0.001953125,-0.2470703,-0.02636719,250.1298,250.1298,-4.656488
1.370605,1.709961,3.365234,-191.4427,-50.06107,41.8168
0.2885742,0.203125,0.9550781,50.0687,-71.74046,-6.022901
-0.949707,-0.6459961,0.04833984,-168.7023,99.38168,-77.0687
-0.34375,0.1196289,0.5585938,16.52672,-90.12977,-0.7938931
-1.006836,-0.3491211,1.467285,-44.85496,-199.4962,23.47328
0.2836914,-0.078125,-0.1572266,24.66412,-62.00763,-13.22901
-0.3813477,0.009277344,-0.04345703,61.31297,103.6336,23.54198
0.2426758,0.09472656,0.3623047,-56.62595,239.0382,16.9084
-0.3251953,0.5058594,0.34375,-118.8244,-141.855,-39.36641
0.2045898,-0.04931641,0.8520508,-4.374046,-60.61832,10.35114
-0.7070313,-0.2285156,0.6157227,18.61069,61.89313,1.694656
-1.258789,-0.3261719,0.2412109,-7.656488,-248.1832,-46.73283
0.3588867,0.001464844,0.07910156,15.45802,-111.7405,100.3359
-0.4448242,0.09228517,0.09619141,208.9847,-214.7481,-57.51145
0.3989258,0.0078125,-0.5727539,-178.4351,250.1298,250.1298
-2.98584,1.046387,0.1474609,-38.0687,250.1298,-2.618321
0.6591797,-0.02050781,-0.730957,143.8473,183.7634,93.31298
1.326172,0.2319336,-1.217285,2.137405,-9.900764,1.061069
2.869629,0.4477539,0.2724609,-35.30534,8.328244,114.1908
1.129395,-0.1401367,-3.513184,-18.27481,-58,39.87023
0.8427734,-0.2055664,-1.40918,-26.64122,-178.771,0.3969466
0.355957,-0.2407227,-0.8647461,0.9312977,7.732825,11.58779
-1.118164,-0.6767578,-0.6166992,5.938932,-248.916,-20.45038
-0.7900391,-0.4013672,-0.1928711,168.8702,-248.1832,-27.78626
0.4985352,0.2163086,-0.01757812,-29.56489,-75.77862,17.61069
-0.1396484,0.09814453,0,-111.0076,-188,-179.5038
0.3989258,-2.999512,-1.910156,247.3664,250.1298,-248.1832
-0.5239258,-0.472168,0.8320313,-12.89313,-134.3206,-22.87023
-0.2958984,-0.1845703,0.9243164,-2.839695,-4.748092,-1.450382
-2.110352,-0.956543,0.9731445,-65.10687,-162.8702,74.41985
-0.2539063,-0.01074219,-0.07373047,75.87786,-179.1069,28.54198
0.2729492,0.1152344,0.2143555,10.20611,46.1145,34.47328
-0.001953125,0.08007813,0.1206055,-114.4733,-248.1832,-183.4657
0.6469727,-0.2612305,0.02978516,250.1298,250.1298,171.1374
-0.4189453,-0.1953125,-0.1303711,-56.43512,28.93893,-6.282443
1.782227,-0.06347656,2.344727,-28.80916,249.1603,48.76336
0.5234375,-0.08203125,0.8789063,-1.366412,140.7481,88.70992
1.77002,0.02978516,0.9150391,55.16794,-118.4046,-38.13741
0.9321289,0.2900391,0.1333008,79.71756,-248.1832,-16.49618
0.01025391,0.07421875,-0.5151367,57.09924,-92.1145,-0.8473283
-0.1054688,0.215332,0.02539062,-65.57252,58.87786,-24.00763
0.1582031,0.2333984,-0.4370117,-153.313,250.1298,80.16794
0.09960938,-0.02392578,-0.5761719,-89.8168,81.16794,72.28244
0.2197266,-0.1289063,-0.734375,3.351145,29.21374,3.610687
0.03955078,0.1308594,-1.145996,-40.48854,-99.0229,-65.49619
0.3383789,-0.4287109,0.1445313,76.70992,250.1298,-75.54962
-0.5927734,-0.2792969,0.5698242,97.49619,-164.3893,24.93893
-2.03125,-0.8691406,1.483887,-149.6794,-88.57252,68.87786
-0.4321289,-0.1132813,0.1557617,152.7557,-150.7252,42.23664
0.3779297,0.2099609,0.1513672,-7.656488,-21.90076,26.17557
-0.2773438,0.05712891,0.1206055,-4.938932,-143.084,-155.0916
-2.70166,1.075195,-0.8251953,-248.1832,250.1298,-33.83969
-0.2988281,0.1318359,-3.452148,-248.0687,250.1298,-59.42748
0.01708984,-0.09130859,-1.026855,1.526718,-40.03053,-0.9770992
-2.319336,0.2763672,0.3740234,139.2748,-248.1832,39.61832
-1.787109,-0.5166016,0.5336914,-3.480916,-248.1832,62.35115
-0.309082,-0.1201172,0.3154297,128.1679,-164.2595,8.21374
0.2949219,0.2792969,0.1298828,-2.603053,-24.00763,14.28244
-0.08447266,0.05615234,0.1591797,-108.2061,-248.1832,-154.5267
0.6191406,0.9091797,-1.014648,-248.1832,250.1298,207.9924
0.2895508,-0.06640625,-5.407227,-248.1832,250.1298,-139.4275
-0.005371094,-0.09960938,-1.022949,5.656488,-41.44275,0.2671756
-0.3808594,0.1318359,-0.9311523,37.30534,-248.1832,-19.89313
-2.117676,-0.4023438,-0.1108398,-135.6031,-216.2443,-55.51146
-0.7573242,-0.3554688,0.3125,57.61832,-242.4427,32.71756
0.1748047,0.1381836,0.2163086,-20.45802,-94.37405,48.13741
-0.1484375,0.05566406,0.1508789,-88.06107,-36.94656,-127.7023
15.99951,-15.1499,13.5542,250.1298,250.1298,-248.1832
-0.734375,-0.3608398,1.176758,88.39695,-248.1832,-27.77863
-0.1401367,-0.1992188,1.03418,3.40458,-23.64122,-2.839695
0.2338867,-0.293457,1.458496,-155.9084,250.1298,68.0229
-0.7949219,-0.2387695,0.2983398,31.20611,-180.3512,22.00763
0.08496094,0.1518555,0.4951172,32.26717,-38.39695,15.18321
0.04150391,0.1279297,0.09033203,-78.93893,236.0382,-50.96183
0.2978516,-0.01416016,0.2797852,-186.5038,37.69466,-16.20611
-1.060059,-0.1049805,0.1552734,-47.06107,-142.2672,12.64122
0.8554688,0.3955078,1.101074,-76.58778,250.1298,91.93893
-1.618652,-0.5263672,1.197266,60.61832,-174.8779,73.45802
0.09765625,-0.09570313,-0.1264648,80.74046,-158.8931,68.1145
0.05615234,0.1220703,-0.4902344,-22.0916,128.3588,-35.28244
-1.963379,1.395996,2.778809,51.12977,250.1298,-49.0229
3.505859,0.9594727,-2.619141,-24.44275,-237.8779,-6.045802
0.01806641,-0.07763672,-1.057617,2.21374,-22.62595,-1.473282
-1.267578,0.3041992,-0.08251953,100.1145,-195.7634,67.771
-2.209961,-0.8212891,0.09863281,-5.534351,-248.1832,-8.427481
-0.1044922,-0.2163086,0.1630859,132.6183,-248.1832,67.77863
0.5097656,0.1962891,-0.1337891,70.61832,-30.87786,20.50382
0.2763672,0.1201172,0.3066406,-237.5343,-248.1832,-248.1832
0.1293945,0.1235352,-0.581543,-219.2519,250.1298,-92.55725
-0.08935547,-0.09765625,-0.9384766,-30.15267,115.1832,-4.740458
-0.3647461,0.005859375,-3.081543,-21.24427,-62.08397,63.53435
-2.226074,-0.6635742,-0.6914063,-49.45038,-234.8244,-21.83969
-0.4282227,-0.3022461,0.3188477,140.3817,-248.1832,57.55725
0.4790039,0.1879883,0.07519531,-18.36641,-73.09161,132.1679
-0.1831055,0.05615234,-0.7246093,-68.54962,-64.00764,-69.66412
-2.121582,0.7958984,-2.203125,1.419847,250.1298,107.9847
-0.2041016,-0.015625,-0.06298828,11.24428,-248.1832,29.03817
-0.1640625,-0.05322266,-1.028809,-8.450381,9.152672,-1.389313
-0.3007813,-0.5112305,-2.213379,198.3969,-248.1832,144.2443
-1.549805,-0.8959961,0.8623047,-35.35115,-248.1832,-30.42748
0.4082031,-0.06738281,0.315918,75.8168,-176.5191,-29.19084
0.5454102,0.2363281,0.02441406,4.625954,10.34351,26.87023
-0.02197266,0.04931641,0.2133789,-58.01527,-26.92366,-169.3053
-0.8510742,0.3515625,-0.7802734,-70.229,250.1298,-46.12977
0.1616211,-0.2026367,-0.3505859,-9.503817,74.06107,80.55725
-0.1748047,-0.07910156,-0.9926758,-2.694656,-1.603053,-1.038168
-0.8896484,-0.3388672,-0.5698242,10.54962,-248.1832,-116.2672
-0.9692383,-0.7475586,-0.04736328,120.6336,-248.1832,96.90076
0.1538086,0.2211914,0.4052734,130.5649,-53.80916,81.39695
-0.03466797,0.1391602,0.1254883,-60.62595,47.72519,-12.79389
0.2451172,-0.0546875,0.3398438,-201.916,-248.1832,-104.3817
-0.1826172,0.1870117,0.2255859,-48.25954,-135.6031,-32.0229
-0.4067383,-0.2285156,0.7895508,-9.984733,4.450382,-1.114504
-0.4462891,-0.2963867,1.218262,-43.58779,64.35114,38.37405
-1.269043,-0.5991211,1.12207,14.80916,-102.9466,-2.229008
-0.05419922,-0.004394531,0.09082031,106.3817,-105.3588,9.770992
0.105957,0.06005859,0.1811523,-5.48855,24.72519,18.35878
0.1040039,-0.02050781,0.1928711,-183.626,-248.1832,-82.54198
-0.6503907,0.2919922,0.08496094,-93.56489,250.1298,11.0916
-0.2094727,-0.2138672,0.8950195,-8.40458,0.6793893,1.717557
0.3398438,-0.05419922,1.354004,-30.07634,90.51909,8.78626
-0.5913086,-0.4453125,1.150391,57.61069,-149.6107,53.60305
0.3017578,0.03662109,0.03125,129.6641,-13.42748,-26.70992
-0.1992188,0.009765625,-0.3173828,-97.80153,111.9847,-25.74046
11.54102,-14.24072,15.99951,250.1298,79.47328,-248.1832
0.2885742,-0.1225586,0.4272461,15.59542,104.8244,73.01527
0.1679688,-0.21875,2.378906,71.80916,-41.20611,9.916031
-0.6542969,-0.5063477,1.258789,83.12977,-48.58779,58.27481
0.2265625,0.144043,0.3823242,47.16031,-48.12214,4.419847
-0.1069336,0.02392578,0.1254883,-103.1603,101.6107,17.49618
0.2270508,-0.01318359,0.2568359,-219.4122,-229.2901,-75.35878
-0.1396484,0.2089844,0.1391602,-80.55725,-44.31298,-0.9160305
0.0234375,0.06542969,0.7529297,-4.030534,-67.35878,15.19084
-1.024902,-0.1503906,1.57666,15.39695,36.79389,95.02291
-0.06201172,-0.04541016,0.4111328,103.3282,-98.1145,25.67175
0.1958008,0.1513672,0.05078125,-45.01527,34.41221,7.954198
0.06982422,0.004394531,0.237793,-237.687,-248.1832,-94.62595
-0.3168945,0.1508789,0.03466797,-77.51908,243.2672,-21.41221
0.8208008,-0.1342773,1.217285,11.84733,-47.91603,33.87023
-0.5708008,-0.06005859,1.460449,-13.56489,-163.2977,-42.32824
1.694336,0.3696289,0.6992188,30.81679,-33.27481,43.15267
0.659668,-0.01904297,0.5507813,67.25954,72.29771,-73.29771
0.3793945,0.2568359,0.1118164,-1.045802,56.20611,-31.13741
-0.07421875,-0.1474609,0.1806641,-95.07633,80.53435,3.335878
-1.624512,-0.05566406,-0.7421875,-0.6946565,250.1298,228.8473
-1.601074,-0.02978516,0.3500977,62.77863,-215.7176,-125.9466
-0.046875,-0.2880859,1.193848,-36.87786,207.1221,-17.77099
-0.7211914,-0.3837891,0.8041992,24.0458,-248.1832,51.0229
0.2128906,0.07666016,0.2075195,31.41985,14.81679,-19.10687
-0.03076172,0.04931641,0.0546875,-122.7863,-248.1832,-34.37405
0.3374023,0.02880859,0.331543,-114.7863,250.1298,-7.503817
-0.2070313,0.1430664,-0.3261719,-40.87023,250.1298,21.51145
-0.21875,0.1083984,-1.165527,-38.71756,6.862596,-2.908397
0.7607422,-0.02392578,-2.511719,162.1221,-248.1832,140.9466
-1.975586,0.246582,-0.1445313,-90.42748,-138.8015,-56.38931
-1.025391,-0.2700195,0.206543,82.47328,-248.9236,14.16031
0.05908203,0.08984375,0.40625,-17.70229,-128.7176,75.7252
-0.6782227,-0.008789062,-0.3774414,27.41221,-181.3893,-8.320611
0.2949219,-0.01806641,0.140625,-150.2901,1.839695,9.221375
0.1450195,0.01708984,-0.6137695,-113.1527,250.1298,-85.16794
-0.109375,0.000488281,-0.6811523,23.34351,27.51908,1.129771
-0.1630859,-0.03515625,-0.9975586,-2.091603,1.160305,-0.9847328
-0.1826172,-0.03222656,-1.265137,59.80916,1.862595,-40.43512
-1.085449,-0.3808594,0.08837891,93.52672,-227.1374,93.46565
-0.06933594,0.1782227,0.1450195,-4.160306,-177.6947,57.34351
0.2294922,0.128418,-0.3300781,-96.17558,57.0458,-40.89313
0.2861328,-0.05322266,0.1640625,-150.916,4.671756,-25.57252
-0.7299805,-0.09082031,-0.1318359,-23.05343,171.6107,-30.83969
5.36377,-0.9682617,-7.85791,-18.45038,250.1298,47.85496
-0.1147461,0.07568359,-0.7739258,-11.67176,18.47328,0.4198473
-0.9467773,0.05371094,-2.165527,-7.603054,-229.542,33.0458
-1.227051,-0.2226563,-0.4394531,-11.22901,-117.9313,-4.19084
-1.350586,-0.08691406,-0.0703125,-58.80916,-178.9542,-22.37405
-0.3857422,-0.09912109,0.5415039,10.0229,-248.1832,11.00763
0.3647461,0.1582031,0.06103516,50.31298,13.61069,24.09924
0.01757812,-0.02001953,0.1542969,-197.5954,-248.1832,-3.755725
-0.5068359,-0.1435547,0.6357422,148.2748,250.1298,47.35115
-1.445313,-0.5029297,0.4853516,74.76336,-220.9084,-71.0458
0.5273438,0.05419922,1.058594,-70.7939,-14.72519,-63.9771
-0.8139648,-0.1845703,1.046387,59.12214,250.1298,-66.56489
-1.126465,-0.6230469,0.7763672,63.65649,-171.5267,4.832061
0.1513672,0.1796875,0.2915039,45.25954,-94.45802,36.92366
0.001464844,0.03076172,0.4438477,-23.75573,-71.16031,61.67939
14.25439,0.5493164,2.077148,-106.2977,250.1298,-50.25954
-4.427246,0.5776367,-0.9858398,32.43512,250.1298,-47.83206
0.3681641,-0.05371094,-0.4008789,73.19084,-180.3512,22.13741
0.105957,-0.02246094,-1.6875,19.85496,-248.1832,84.90839
-2.223145,-0.02880859,-0.1044922,-21.45038,-138.1298,-121.374
-0.8642578,-0.2866211,0.2358398,109.5038,-196.8855,37.85496
0.2192383,0.05859375,-0.1411133,3.816794,75.32825,107.4122
0.1660156,-0.02441406,0.1181641,-248.1832,-248.1832,-36.70229
0.3828125,-0.04101563,0.3393555,15.37405,250.1298,80.48855
0.2387695,0.1435547,0.06933594,-1.099237,-18.92366,-44.83969
0.8120117,0.01855469,0.6401367,-4.007634,-4.366412,-1.236641
1.085938,-0.1967773,0.8198242,-40.01527,15.84733,53.57252
0.05859375,0.01904297,0.1166992,25.93893,157.0305,-68.44275
0.1289063,-0.09716797,1.126953,15.18321,-16.94657,-5.725191
-1.437012,-0.3544922,1.19043,11.17557,-248.1832,-0.6870229
0.1113281,0.06689453,0.08007813,55.19847,-23.59542,-9.175572
-0.128418,0.08154297,0.09423828,-113.2061,-199.4657,-98.28244
6.769531,-1.554688,2.601074,134.374,250.1298,-237.8473
-0.2280273,0.009765625,0.1123047,81.00764,-248.1832,-130.3282
-0.09521483,0.01318359,1.009766,-21.36641,-97.21374,19.34351
-1.460938,-0.2753906,1.086426,31.13741,-143.2061,78.92367
