Ax,Ay,Az,Gx,Gy,Gz
0.1054688,-0.03027344,0.9819336,-3.312977,0.2290076,-1.198473
0.105957,-0.03271484,0.9794922,-3.175573,0.2137404,-1.114504
0.1035156,-0.03271484,0.9790039,-3.251908,0.08396947,-1.114504
0.1079102,-0.03271484,0.9746093,-3.305344,0.1145038,-1.099237
0.105957,-0.03271484,0.9794922,-3.251908,0.03816794,-1.015267
0.1074219,-0.03710938,0.9794922,-3.229008,0.1908397,-1.007634
0.1015625,-0.03417969,0.9692383,-3.48855,0.2061069,-1.236641
0.1054688,-0.03857422,0.980957,-3.19084,0.08396947,-1.015267
0.1030273,-0.03222656,0.9775391,-3.282443,0.1068702,-0.9465649
0.1074219,-0.03417969,0.9765625,-3.236641,0.03816794,-1.099237
0.1132813,-0.03125,0.9746093,-3.343511,-0.05343511,-1.221374
0.1064453,-0.03564453,0.9799805,-3.305344,0.1679389,-0.9389313
0.1103516,-0.03271484,0.9785156,-3.076336,0.1603054,-1.167939
0.1049805,-0.03369141,0.9868164,-3.343511,0.1679389,-1.114504
0.1123047,-0.03710938,0.9780273,-3.305344,0.1526718,-1.206107
0.1044922,-0.03320313,0.9858398,-3.541985,0.03816794,-1.114504
0.09814453,-0.03369141,0.9829102,-3.381679,0.1603054,-1.053435
0.1049805,-0.02832031,0.984375,-3.198473,0.09923664,-1.10687
0.1049805,-0.03417969,0.9780273,-3.519084,0.0610687,-0.961832
0.09863281,-0.02539062,0.9858398,-3.465649,0.03053435,-1.038168
0.1030273,-0.03808594,0.9770508,-3.458015,0.2748091,-1.137405
0.105957,-0.03710938,0.9838867,-3.374046,0.06870229,-1.152672
0.01318359,0.02734375,1.408203,-47.06107,38.86259,-18.34351
0.2368164,-0.6254883,0.8847656,-67.10687,29.76336,49.64885
-0.2758789,-0.06591797,0.8432617,15.77099,-114.1221,144.8931
-0.2856445,-0.1494141,1.129883,-44.58015,2.10687,-16.83206
-0.1767578,-0.1367188,1.027344,-31.47328,17.36641,-2.412214
-0.03222656,-0.125,1.161133,18.51145,-27.32061,-3.427481
0.08837891,-0.01074219,0.8828125,-11.9542,-24.57252,-1.954198
0.01318359,-0.04052734,0.9082031,-21.05343,-17.70992,19.58778
0.190918,0.00390625,1.066406,-47.66412,-113.3359,-8.389313
0.5410156,-0.3642578,0.8525391,-1.152672,139.5649,-1.839695
0.3076172,-0.2666016,0.9433594,-62.29008,-143.374,-1.954198
0.3061523,-0.2509766,1.300781,-6.641222,20.10687,-6.290076
-0.09570313,-0.1069336,0.05615234,-31.18321,126.229,-49.76336
0.4091797,-0.2700195,1.562988,-41.03053,159.4046,85.78626
-0.1567383,-0.105957,-0.2788086,69.77863,-218.916,-44.27481
0.1738281,0.04199219,0.2612305,-122.4122,209.1603,55.49618
0.3427734,-0.8647461,3.45166,61.93893,142.084,-132.5573
-0.496582,0.02050781,-0.4301758,95.8168,-164.145,-46.83206
0.09228517,-0.03759766,0.1796875,-46.24427,250.1298,37.9771
0.06152344,-0.5170898,2.638184,27.81679,62.0229,-9.770992
0.1015625,0.02783203,0.265625,-62.46565,-248.1832,4.824428
-0.02783203,0.09960938,0.4008789,78.45038,158,-10.74809
-0.1264648,0.2548828,1.014648,212.7634,250.1298,-22.24427
0.4912109,-0.3422852,2.111816,86.68702,119.0534,75.12977
0.1064453,-0.006835938,0.4960938,-128.8473,-248.1832,33.25954
0.1943359,0.07470703,-0.168457,-113.8473,108.9618,-47.55725
0.1943359,-0.1713867,2.035645,-88.65649,180.7023,40.9313
0.04638672,0.09130859,0.2016602,111.7863,-248.1832,-40.32061
-0.03515625,0.01123047,-0.2563477,-27.03817,85.12214,13.43511
-0.04345703,-0.1669922,1.996582,-86.9542,250.1298,53.80916
0.4160156,0.07617188,0.5263672,105.4885,-248.1832,-73.16031
-0.07763672,0.006835938,0.112793,-40.85496,64.229,-17.69466
-0.2158203,-0.1147461,1.845215,56.48092,250.1298,19.49618
0.3208008,-0.1396484,0.7207031,34.60305,-248.1832,-62.23664
-0.08886719,0.1079102,0.04736328,2.625954,47.77862,-21.0458
0.06738281,-0.01904297,1.406738,3.839695,244.0687,21.50382
0.8999023,-0.5883789,1.163574,105.9237,-248.1832,-86.75572
-0.003417969,-0.2016602,-0.2963867,-1.732824,-3.458015,-10.35114
-0.06738281,-0.09423828,0.2080078,-123.0076,164.5038,30.22901
-0.2109375,-0.3457031,2.870117,-76.75572,214.7481,55.35878
0.3696289,-0.09521483,0.3203125,184.1985,-248.1832,-10.12977
-0.09326172,0.1040039,-0.1152344,-102.4427,57.91603,33.92366
-0.07666016,-0.02929688,1.907227,-79.74809,197.5954,39.66412
0.3852539,0.07470703,1.166992,28.54962,-248.1832,-18.14504
-0.02880859,0.05615234,-0.003417969,7.496183,-46.79389,-1.801527
0.1611328,-0.002929688,0.4389648,-93.24428,184.4351,-32.32824
-0.7338867,0.05371094,3.366699,17.26718,44.58779,-53.9542
-0.03613281,-0.03173828,-0.0234375,73.78626,-61.48092,-7.259542
-0.03466797,0.109375,0.618164,-138.626,199.8397,-8.038168
-0.1801758,-0.2788086,2.593262,16.85496,-207.5267,-53.70229
-0.1489258,-0.008789062,-0.2021484,36.37405,-8.656488,-23.73282
-0.3022461,0.08300781,1.158203,-208.5038,250.1298,-19.0458
0.1367188,-0.1708984,1.634277,138.2443,-248.1832,-29.07634
-0.01708984,-0.1386719,-0.125,32.51908,14.10687,28.54962
0.05419922,-0.03271484,0.7695313,-209.0305,247.6488,-32.96183
0.5546875,0.2587891,1.874023,250.1298,-248.1832,61.73283
-0.07519531,-0.1298828,-0.3491211,80.60306,27.51145,21.72519
-0.04833984,0.1108398,1.364746,-185.3206,212.1145,80.71756
0.4135742,0.03125,2.194336,130.8397,-248.1832,-4.91603
0.1069336,-0.07324219,-0.1777344,52.61832,-23.08397,29.84733
-0.4267578,0.1772461,1.050781,-108.855,250.1298,-45.79389
0.07226563,-0.2084961,2.407715,31.31297,-248.1832,22.13741
-0.02636719,-0.08056641,0.07324219,3.137405,-3.603053,-9.648855
-0.1855469,0.1762695,1.195801,-151.8168,250.1298,-22.09924
0.1074219,-0.300293,1.880859,117.0763,-248.1832,21.80153
-0.07763672,-0.06103516,0.1381836,25.45038,-12.77099,-6.320611
0.02148438,0.04882813,1.39502,-149.7099,250.1298,9.328243
0.5307617,-0.253418,1.550781,158.5802,-248.1832,45.07634
-0.1347656,0.02441406,0.06689453,91.40458,65.79389,-36.93893
-0.2529297,-0.1020508,1.446289,-54.9542,222.1145,-24.64122
-0.5400391,-0.1254883,2.395508,50.80916,58.37405,-8.076336
0.05712891,-0.08105469,0.5283203,-16.44275,-184.855,-19.93893
0.04150391,-0.06396484,0.2939453,0.2213741,71.01527,-22.79389
-0.4550781,-0.01269531,1.225586,-5.38168,245.8321,-45.8855
0.1035156,-0.3710938,1.729004,-38.87786,-237.4733,2.091603
0.004882812,-0.078125,0.2133789,61.03817,-63.58015,-32.80153
-0.1845703,-0.03955078,0.2451172,24.06107,77.31298,43.25191
-0.4633789,-0.1669922,2.47168,28.91603,145.6794,14.0687
0.1328125,-0.1567383,0.6962891,58.51908,-244.6565,-8.206107
-0.05078125,-0.02197266,-0.02441406,12.54962,33.74809,12.41985
-0.06689453,0.02197266,0.9086914,-182.6107,178.2595,15.24428
-0.9086914,-0.05126953,3.087891,65.92367,22.87786,-22.46565
0.01708984,-0.03613281,0.3862305,55.03053,-188.5343,0.1145038
0.1132813,-0.09179688,0.04248047,16.60305,41.31298,11.46565
-0.1479492,0.05810547,1.345703,-172.0229,167.5496,-14.46565
0.284668,-0.08935547,1.511719,90.09924,-248.1832,24.67939
0.07519531,-0.06640625,0.4008789,47.94656,-158.1145,20.45038
0.06054688,-0.06787109,0.2539063,-9.564885,97.31298,-3.969466
-0.2304688,-0.004882812,1.640625,-80.67939,196.1985,-21.58779
0.03857422,-0.05908203,1.765137,75.76336,-240.458,32.87786
0.06738281,-0.09814453,0.006835938,63.07634,-95.00764,14.41221
0.1015625,-0.01025391,0.2080078,-78.40457,122.8244,-29.93893
-0.2583008,-0.03808594,1.669434,-137.9771,175.6565,-29.49618
0.1679688,-0.1074219,2.127441,148.0229,-248.1832,40.41985
0.02246094,-0.05566406,0.02587891,66.79389,-62.12214,24.91603
-0.4282227,0.2983398,0.4243164,-158.9924,122.5343,-41.89313
-0.1264648,0.06835938,2.402832,-8.870229,113.8397,-37.9771
0.1235352,-0.04443359,1.32666,97.19847,-180.5343,35.76336
-0.000976562,-0.06347656,0.1743164,20.05343,-78.03817,-5.694656
-0.01855469,0.06445313,0.5888672,-83.30534,91.10687,-12.22901
-0.1230469,0.04296875,1.183594,-56.9313,80.67939,-12.83206
-0.2993164,0.01318359,1.712402,23.28244,-19.24427,-26.31298
-0.2470703,-0.006835938,1.448242,34.51145,-51.14504,-7.877862
-0.09521483,-0.1313477,0.9111328,39.8168,-37.45802,17.54198
-0.1176758,0.006347656,0.4433593,13.57252,1.755725,12.1145
-0.05566406,-0.005371094,0.519043,-25.93893,34.29771,7.534351
-0.0546875,0.04101563,0.7958984,-85.38931,79.59542,-14.54962
-0.2207031,0.05126953,1.51416,-63.99237,76.84733,-38.25954
-0.4370117,0.1958008,1.755371,43.53435,-73.86259,-14.40458
-0.06640625,-0.1518555,0.8237305,54.17557,-86.9771,24.65649
0.01611328,-0.09814453,0.3125,24.74046,-13.27481,2.374046
-0.1289063,0.02148438,0.5712891,-74.73283,46.82443,-29.64122
-0.1171875,-0.06347656,0.956543,-66.71756,72.40458,-3.526718
-0.3959961,0.004394531,2.069336,51.70229,3.167939,11.9771
-0.08349609,0.03515625,0.5830078,55,-79.14503,7.961832
-0.03076172,-0.05517578,0.3500977,-37.01527,43.00763,-11.41221
-0.2202148,0.09326172,1.070313,-78.65649,81.50381,-43.0687
-0.3637695,-0.004394531,1.976074,67.19847,-85.64121,23.78626
-0.2373047,-0.08691406,0.9038086,-45.8168,7.312977,-25.70992
-0.02050781,-0.4150391,0.6196289,-31.96947,26.39695,-28.83969
-0.1088867,-0.4414063,0.4643555,59.87786,-9.175572,1.664122
-0.1254883,0.01171875,1.096191,65.15267,-43.20611,50.37405
-0.07324219,0.005859375,0.9125977,-14.19847,0.259542,13.08397
-0.1391602,0.01611328,0.9101563,-19.41221,1.221374,10.8855
-0.2265625,-0.03466797,0.9555664,-8.351145,-1.847328,13.8855
-0.1953125,0.03759766,0.9760742,17.48855,-16.93893,10.27481
-0.2094727,0.1201172,0.9916992,-8.442748,3.618321,-2.183206
-0.1552734,0.01123047,0.9755859,-10.29771,-1.633588,-0.832061
-0.1928711,0.01367188,0.9472656,7.038168,-6.473282,-0.5954198
-0.09472656,0.02246094,0.9672852,-3.946565,-5.473282,-2.824427
-0.07177734,0.03076172,0.9414063,11.07634,-9.992367,-5.793893
0.01123047,0.07470703,1.020508,-1.10687,-7.625954,5.48855
-0.002441406,0.04101563,0.9721681,-8.610687,-2.160305,9.091603
-0.01123047,0.01611328,0.9848633,-11.57252,2.80916,12.61832
-0.03076172,0.006835938,0.9736328,-7.587786,4.152672,2.908397
-0.03369141,0.02001953,1.031738,2.580153,5.10687,9.221375
-0.09326172,0.06396484,1.004395,2.694656,-8.755725,1.557252
-0.1772461,0.1494141,1.126953,-14.69466,-8.183207,-12.34351
-0.05859375,-0.1479492,0.7973633,-40.71756,34.46565,-25.67175
-0.15625,-0.2094727,0.8789063,18.38168,-21.67175,2.305344
-0.2021484,-0.02978516,1.166016,4.648855,-8.366412,-11.80916
-0.001953125,-0.04882813,0.8652344,22.82443,-1.076336,-28.70229
-0.007324219,-0.04345703,1.041016,9.221375,-6.091603,-8.221375
-0.08105469,-0.1210938,0.8564453,5.274809,1.580153,14.8855
-0.1010742,0.009277344,1.064453,23.22901,-33.31298,-5.068702
0.1074219,-0.01464844,0.8979492,9.793892,-6.725191,35.16031
0.02685547,0.1416016,1.125488,-54.50382,24.06107,39.06107
0.08447266,-0.02880859,0.8164063,41.16031,-108.5267,-2.435114
-0.02636719,0.09814453,0.625,-98.06107,44.13741,32.96183
-0.06152344,0.1010742,1.375488,37.96947,-8.351145,-12.20611
-0.02636719,-0.1630859,0.6855469,49.16794,-48.80153,9.54962
-0.1430664,0.1479492,0.918457,-110.1221,92.59542,-61.19847
-0.1611328,-0.1811523,1.226563,149.1985,-69.85497,17.17557
-0.1376953,-0.2641602,0.4614258,-20.10687,-17.89313,9.885496
-0.1518555,-0.0546875,1.222168,-77.42748,77.23664,5.534351
-0.1806641,-0.05712891,1.4375,87.67175,-67.0458,7.282443
-0.05957031,-0.1015625,0.4477539,19.8855,-19.65649,8
-0.07763672,-0.009765625,0.7553711,-91.82442,31.32061,18.1145
-0.09228517,-0.06396484,1.525391,-14.53435,14.40458,-10.63359
-0.07470703,-0.06835938,0.9189454,66.74809,-49.26717,3.290076
0.06152344,-0.1713867,0.5820313,-34.75573,3.358779,33.33588
0.01220703,-0.07275391,0.8837891,-22.0916,-3.396947,-2.396947
-0.02099609,-0.1464844,0.9697266,-9.267176,-7.473282,-0.8244275
-0.008300781,-0.1030273,0.9316406,-7.977099,-3.816794,2.938931
0.02783203,-0.1132813,0.9750977,-5.366412,3.251908,-1.564886
-0.04589844,-0.125,0.9360352,7.534351,1.374046,-6.541985
0.04345703,-0.02392578,0.9321289,-5.656488,28.24427,-13.77863
-0.04052734,-0.09716797,0.9301758,3.755725,45.9771,-27.84733
-0.1889648,-0.1318359,0.9345703,4.755725,16.89313,-18.60305
-0.1489258,-0.171875,0.9853516,2.282443,-1.465649,-7.977099
-0.2119141,-0.08740234,0.9101563,-5.389313,0.9312977,1.160305
-0.2143555,-0.09667969,0.9663086,-2.251908,-1.366412,0.8549618
-0.2167969,-0.07128906,0.9536134,-3.19084,3.755725,2.335878
-0.2021484,-0.06884766,0.9790039,-6.732825,6.267175,6.091603
-0.2890625,-0.1108398,0.8862305,-2.045802,-5.137404,3.847328
-0.237793,-0.1328125,0.8833008,-7.931298,-4.145038,6.641222
-0.2236328,-0.1035156,0.956543,0.4732824,-0.5496183,4.152672
-0.2011719,-0.1064453,0.9321289,-2.389313,1.305344,1.977099
-0.1577148,-0.1538086,0.9501953,2.007634,-7.21374,4.442748
-0.1782227,0.01025391,0.9233398,-0.6793893,-5.580153,20.57252
-0.1499023,0.02832031,0.9760742,-3.603053,-0.2290076,4.709924
-0.159668,0.000976562,0.9707031,-3.19084,-0.5648855,-1.992366
-0.1987305,0.006835938,0.996582,-2.656489,-2.007634,-2.625954
-0.1591797,-0.01611328,0.9863281,-4.320611,1.931298,-1.725191
-0.1640625,-0.009765625,0.9604492,-3.251908,1.854962,0.3053435
-0.1743164,-0.009277344,0.9672852,-3.061069,-2.755725,-1.832061
-0.1733398,-0.01269531,0.9873047,-3.343511,-1.40458,-2.221374
-0.1367188,-0.04589844,0.9995117,-26.67939,1.572519,7
-0.06152344,-0.1401367,0.894043,-14.82443,-9.648855,-4.603054
-0.1040039,-0.199707,0.9394531,-2.465649,14.34351,-3.290076
-0.1000977,-0.2875977,0.9580078,-26.27481,16.19847,2.847328
-0.2192383,-0.2207031,0.9121094,-14.68702,-7.91603,-2.580153
-0.1733398,-0.2504883,0.8999023,-6.007634,-0.7709923,-10.38168
-0.1411133,-0.3032227,0.9028319,-4.587786,5.51145,0.08396947
-0.1669922,-0.2661133,0.9238281,-1.358779,-1.59542,-0.7022901
-0.1640625,-0.2475586,0.918457,0.3664122,1.80916,-1.763359
-0.1289063,-0.2041016,1.035645,7.70229,5.259542,-14.10687
-0.1411133,-0.1860352,1.029297,-3.770992,-4.442748,-17.87786
-0.1083984,-0.1401367,0.9897461,7,9.610687,-25.80916
-0.140625,-0.3227539,0.8935547,2.877863,7.160306,-12.77863
-0.2373047,-0.2583008,0.918457,11.67176,11.75572,21.58779
-0.3544922,-0.1357422,0.9418945,-0.8244275,61.84733,35.35115
-0.5703125,-0.1542969,0.8295898,-1.816794,32.47328,32.29771
-0.6074219,-0.1884766,0.722168,-2.78626,32.39695,9.946565
-0.6777344,-0.1186523,0.4658203,-13.24428,7.244275,8.251908
-0.659668,0.05419922,0.6645508,13.70229,-45.42748,15.26718
-0.4702148,0.1074219,0.8759766,14.64886,-44.45802,-1.816794
-0.1904297,0.05615234,0.9721681,1.290076,-17.25191,1.396947
-0.2626953,0.1728516,0.9140625,-37.19847,3.229008,0.1603054
-0.359375,0.03515625,0.9765625,-34.32824,78.8855,-13.87786
-0.5883789,-0.1274414,0.9321289,-49.30534,80.54961,-42.08397
-0.6508789,-0.456543,0.2939453,-25.94656,88.93894,-42.14504
-0.7070313,-0.5654297,0.1293945,8.770992,42.77863,-23.73282
-0.7080078,-0.6879883,-0.0078125,-18.0458,32.67176,-13.80916
-0.6914063,-0.6674805,-0.1699219,-56.59542,45.29008,13.78626
-0.684082,-0.5126953,-0.3652344,-15.96947,42.8855,21.51145
-0.6655273,-0.4736328,-0.6220703,-5.603054,-3.694656,2.633588
-0.7338867,-0.5263672,-0.3666992,19.62595,-42.84732,3.442748
-0.7412109,-0.4589844,-0.4140625,16.98473,-116.1679,2.351145
-0.6152344,-0.5644531,0.4443359,34.98473,-84.48854,58.8855
-0.7373047,-0.1430664,0.7104492,14.35114,-72.67939,35.80916
-0.4555664,-0.02734375,0.7939454,29.83206,-44.03817,22.86259
-0.3886719,0.08740234,0.9067383,20.87786,-15.80916,-2.473282
-0.3266602,0.1420898,0.8725586,5.38168,-21.53435,0.351145
-0.2631836,0.06982422,0.9750977,-15.37405,-25.03817,-8.961832
-0.2714844,0.1206055,0.9350587,-7.534351,-6.687023,-10.41221
-0.04345703,0.1396484,1.004883,10.66412,-23.65649,-17.42748
0.03076172,0.09667969,0.9995117,-27.62595,-50.32824,-34.0458
0.06445313,0.09667969,0.9545898,-8.099236,2.038168,-33.77099
0.01025391,0.03515625,0.9902344,-8.099236,-2.572519,-2.610687
-0.02246094,0.04980469,1.006836,-8.816793,5.030534,15.03817
-0.03125,0.06054688,1.028809,8.030535,-6.374046,5.458015
0.05957031,0.01806641,0.9526367,-3.48855,4.992366,36.21374
0.05859375,0.07373047,1.039551,-3.061069,-9.206107,-5.274809
0.03271484,0.02246094,0.9790039,-1.80916,3.839695,-11.19847
0.03320313,0.03076172,0.9667969,2.847328,3.503817,-7.366412
0.04736328,0.05224609,0.9926758,0.5648855,-1.78626,-1.641221
0.04492188,0.05957031,0.9619141,-0.1221374,-1.129771,2.580153
0.02929688,0.01123047,0.9350587,-7.740458,-3.862595,9.938931
0.009765625,0.137207,0.9697266,3.992366,4.977099,-0.09923664
-0.03271484,0.128418,0.9501953,6.870229,10.18321,-12.45802
0.01953125,0.08349609,1.005859,-11.70229,2.022901,-15.25191
-0.01025391,0.05273438,0.987793,-15.8626,0.4122138,-7.496183
-0.03564453,-0.004394531,1.000488,-8.312977,11.8626,-15.84733
-0.03710938,-0.05810547,0.9960938,-10.43511,0.5114504,-14.90076
-0.04101563,-0.1269531,0.9487305,-7.961832,3.053435,-7.519084
-0.05908203,-0.1557617,0.9482422,-0.5725191,-1.656489,6.862596
-0.004394531,-0.1044922,0.9458008,6.59542,-2.885496,22.58015
-0.02246094,-0.04003906,0.9711914,3.526718,-6.992366,16.39695
-0.02148438,0.03076172,1.008789,13.17557,-1.19084,2.091603
0.003417969,0.0234375,0.9790039,-0.8778625,1.732824,5.290076
0.008300781,0.03759766,0.9677734,-6.206107,2.412214,-0.4732824
-0.03515625,0.05419922,1.003418,-1.221374,3.885496,-4.08397
-0.1040039,0.01513672,0.9863281,-10.17557,3.076336,-4.030534
-0.07373047,0.04003906,1.008789,-17.70992,-0.7633588,-12.67176
-0.09130859,-0.1010742,0.9174805,-40.29008,17.39695,-18.27481
-0.1230469,-0.2626953,0.9130859,-20.64886,9.557252,-15.87786
-0.1210938,-0.3198242,0.8652344,-11.14504,-0.0610687,-8.21374
-0.1699219,-0.3149414,0.9169922,-2.129771,5.816794,-10.67939
-0.04833984,-0.3505859,0.9267578,7.305344,-9.145039,-5.656488
-0.05517578,-0.2636719,0.9204102,1.923664,-6.442748,0.8625955
-0.01708984,-0.2294922,0.9707031,5.160306,-10.56489,0.2824428
-0.01220703,-0.1811523,0.9365234,1.022901,-3.549618,21.48855
-0.02539062,-0.1289063,0.9863281,6.114504,-5.862596,16.74809
0.009277344,-0.1054688,0.9438477,14.00763,-6.526718,9.992367
-0.01025391,0.006347656,0.9697266,4.244275,6.19084,7.236641
-0.05566406,0.007324219,0.9399413,0.3282443,11.62595,3.564886
-0.08007813,0.01171875,1.026855,-2.29771,4.679389,-3.519084
-0.08398438,-0.01855469,0.996582,-1.534351,1.778626,-1.900763
-0.08886719,0.02294922,0.9672852,2.549618,-5.267175,-5.152672
-0.001464844,-0.01269531,0.9970703,2.946565,-12.29771,-12.0687
-0.01660156,0.04443359,0.9707031,-7,-10.51908,-6.641222
0.01513672,0.04394531,1.008301,-0.5343512,-4.290076,-0.9847328
0.01171875,0.04296875,1.009766,-0.2671756,11,-5.671756
-0.02880859,0.02197266,0.8930664,1.175573,-8.648855,5.740458
-0.03173828,0.01367188,0.9672852,-1.152672,4.40458,-1.923664
-0.01953125,0.008789062,0.9648438,-3.687023,-1.015267,-0.2900764
-0.04833984,0.01904297,0.9741211,-1.91603,0.5725191,-1.396947
-0.02880859,0.04003906,0.9926758,-6.290076,-5.38168,-0.01526718
-0.04931641,0.04296875,0.953125,-4.137404,0.7328244,-1.389313
-0.005371094,0.005859375,0.9746093,-3.656489,-0.3664122,-0.05343511
-0.01953125,0.01855469,1.011719,-7.648855,1.068702,-2.763359
-0.002441406,0.01464844,0.9804688,-8.473283,2.633588,-2.458015
-0.03173828,0.02001953,0.9829102,8.244275,-4.061069,2.534351
-0.01220703,0.03662109,0.9863281,-0.5877862,1.10687,-0.5801527
-0.00390625,0.007324219,0.9472656,-6.244275,4.778626,-0.7099237
-0.03173828,0.03222656,0.9619141,-5.557252,2.801527,0.4198473
-0.03222656,0.01806641,0.9462891,-7.992366,2.229008,-0.4351145
-0.03320313,0.03222656,0.9545898,-0.870229,-1.145038,-1.442748
-0.03857422,0.01708984,0.9780273,-5.229008,-1.763359,-2.038168
-0.04199219,0.04101563,0.9912109,-3.580153,1.08397,-1.274809
-0.03955078,0.02587891,0.9638672,-2.671756,1.725191,-0.519084
-0.03222656,0.04003906,0.9936523,-3.496183,-0.3358779,-0.5114504
-0.04101563,0.02880859,0.9760742,-3.748092,-1.068702,-0.610687
-0.03027344,0.02832031,0.9760742,-3.48855,-0.5648855,-0.8931297
-0.02880859,0.03466797,0.9936523,-2.755725,1.312977,-0.9465649
-0.04541016,0.03466797,0.9716797,-4.572519,0.1679389,-1.015267
-0.04199219,0.04101563,1.006836,-3.832061,-1.48855,-1.076336
-0.04199219,0.03417969,0.9853516,-3.473282,0.1374046,-1.038168
-0.04638672,0.03222656,0.9760742,-2.839695,0.6412214,-1.244275
-0.04150391,0.04638672,0.9902344,-4.70229,0.09160305,-0.6564885
-0.04541016,0.03808594,0.9736328,-3.435114,0.03053435,-1.221374
-0.03076172,0.02929688,0.9863281,-2.618321,0.6259542,-0.8625955
-0.05175781,0.04101563,0.9711914,-3.717557,-0.1832061,-1.534351
-0.03662109,0.03515625,0.9814453,-2.137405,0.3587786,-1.167939
-0.03222656,0.03857422,0.984375,-3.206107,0.6870229,-0.9389313
-0.0390625,0.03076172,0.9785156,-4.129771,0.1755725,-1.381679
-0.09472656,0.0390625,0.9819336,-18.61832,6.587786,-4.29771
-0.09326172,-0.02636719,1,-30.32061,-0.778626,-5.496183
-0.09667969,-0.1142578,0.9433594,-2.030534,11.9313,-9.145039
-0.1391602,-0.1943359,0.8989258,-16.70992,-4.946565,-7.977099
-0.08056641,-0.2573242,0.9228516,-21.25954,14.1374,-11.38931
-0.1811523,-0.3388672,0.8515625,-16.32061,21.00763,12.00763
-0.2143555,-0.4145508,0.8496093,-6.564886,4.053435,0.8778625
-0.2124023,-0.3920898,0.868164,-2.694656,-0.7175572,0.4427481
-0.1821289,-0.3955078,0.8754883,5.160306,0.7557252,-0.2366412
-0.1787109,-0.3842773,0.855957,-3.343511,-8.458015,1.633588
-0.1577148,-0.3706055,0.8481445,-0.1908397,-0.5496183,0.7938931
-0.1391602,-0.2905273,0.9550781,21.47328,0.5572519,-3.10687
-0.1464844,-0.06689453,0.949707,26.49618,-12.1374,0.6717557
-0.1420898,-0.0546875,0.9375001,-4.374046,3.282443,-3.343511
-0.1455078,-0.1035156,0.9492188,-8.961832,4.656488,-2.091603
-0.1557617,-0.1181641,0.9677734,-16.72519,8.946565,-1.167939
-0.1928711,-0.1572266,0.9316406,-21.80153,10.31298,-2.282443
-0.2329102,-0.125,0.8984375,-25.09924,10.33588,2.748092
-0.2680664,-0.3378906,0.8657228,-13.13741,-5.099236,0.5114504
-0.2495117,-0.3652344,0.8505859,-8.251908,3.541985,1.206107
-0.2441406,-0.387207,0.8325195,-1,2.580153,1.381679
-0.2822266,-0.3510742,0.840332,-3.641221,-1.625954,-0.7480916
-0.2509766,-0.3100586,0.9003907,25.01527,-5.641222,0.09923664
-0.206543,-0.1801758,0.9091797,30.77863,-14.19847,7.030534
-0.1582031,-0.04199219,0.934082,40.61069,-5.801527,0.2366412
-0.1948242,0.1816406,0.8842772,24.19847,21.44275,6.923664
-0.1660156,0.1323242,0.953125,-5.740458,13.77863,3.641221
-0.2114258,0.1254883,0.9580078,-12.32061,0.5114504,-2.465649
-0.2099609,0.04492188,0.9912109,-32.56488,2.045802,-11.98473
-0.2407227,-0.1206055,0.9057617,-26.48092,8.343512,-10.51145
-0.2641602,-0.2109375,0.9213866,-15.62595,15.84733,-5.48855
-0.3256836,-0.253418,0.8666992,-20.58015,1.458015,-5.656488
-0.3374023,-0.2734375,0.8652344,-6.839694,-7.007634,-0.2748091
-0.2998047,-0.3076172,0.871582,-2.458015,0.778626,0.519084
-0.300293,-0.3144531,0.8706055,3.458015,2.396947,0.961832
-0.3164063,-0.2866211,0.8652344,-3.480916,-0.961832,0.389313
-0.3076172,-0.2866211,0.8569336,-2.801527,-1.282443,-0.3664122
-0.2646484,-0.2392578,0.909668,20.74046,-5.801527,6.137404
-0.2978516,-0.07958984,0.9311523,10.12214,0.9465649,5.480916
-0.2875977,-0.1015625,0.9082031,-3.70229,-0.3969466,-0.259542
-0.2880859,-0.06542969,0.9501953,-6.549618,-1,-1.977099
-0.2866211,-0.1591797,0.9316406,-33.58015,3.824427,-19.50382
-0.2998047,-0.2084961,0.9077148,-6.480916,1.51145,-0.8625955
-0.3022461,-0.1943359,0.9291992,-5.755725,1.389313,-2.641221
-0.2724609,-0.1860352,0.925293,-3.19084,1.396947,1.183206
-0.2866211,-0.2680664,0.8876953,-16.54198,3.10687,-7.610687
-0.315918,-0.2680664,0.8842772,-6.10687,0.610687,-1.580153
-0.3173828,-0.2724609,0.8798828,-3.580153,0.5343512,-0.9694656
-0.3198242,-0.2827148,0.8706055,-4.503817,1.480916,-2.198473
-0.3325195,-0.2753906,0.881836,-5.427481,1.122137,-2.664122
-0.3120117,-0.3134766,0.8432617,-5.091603,0.129771,-0.2366412
-0.3066406,-0.309082,0.8330078,2.557252,0.3740458,1.328244
-0.3251953,-0.2041016,0.8725586,38.51145,-6.748092,11.01527
-0.2944336,-0.1118164,0.8891602,24.67939,-15.52672,13.71756
-0.2045898,0.07226563,0.8652344,-59.29008,-22.40458,19.19084
-0.1210938,0.05273438,0.9833984,-1.885496,-0.9923665,-3.183206
-0.1245117,0.02978516,0.9799805,0.3664122,-19.8626,0.6183206
-0.05419922,0.03417969,0.9638672,-6.366412,-14.28244,2.732824
-0.000976562,0.03320313,0.9970703,-6.969466,-4.335878,1.099237
0.001953125,0.0234375,1.013184,-4.328244,5.755725,-3.992366
-0.04541016,0.05322266,1.033691,-11.87786,7.580153,-7.847328
-0.07080078,-0.1000977,0.9379883,-27.21374,8.557252,-6.61832
-0.1064453,-0.1342773,0.8554688,3.900763,31.80916,-32.0458
-0.175293,-0.1948242,0.878418,-16.69466,13.68702,-5.793893
-0.1791992,-0.2246094,0.9296875,-3.10687,-3.396947,0.6259542
-0.1757813,-0.2495117,0.9213866,8.893129,0.5572519,11.44275
-0.1445313,-0.1875,0.9262695,20.48855,3.320611,27.74809
-0.1425781,-0.1108398,0.9462891,5.358778,-7.755725,5.587786
-0.1401367,-0.008300781,0.9794922,-2.687023,-0.04580153,1.137405
-0.1333008,-0.01660156,0.9667969,-5.015267,0.740458,-1.839695
-0.1245117,-0.05664063,0.9492188,-2.732824,1.29771,0.3282443
-0.1728516,0.005859375,1.050293,-12.18321,9.732824,-9.931298
-0.21875,-0.2719727,0.8305664,-23.09924,48.40458,-35.15267
-0.3222656,-0.2475586,0.9101563,-7.671756,15.66412,-12.07634
-0.3310547,-0.2675781,0.8457031,-2.618321,-7.091603,-10.83969
-0.3217773,-0.2197266,0.9194336,33.17557,6.633588,-19.67175
-0.1572266,-0.2724609,0.8491211,27.67939,-59.72519,-8.290076
-0.2456055,-0.2226563,0.6772461,-28.67175,-4.496183,-24.38931
0.1948242,-0.2397461,0.9023438,31.06107,-1.839695,-11.70229
0.06445313,-0.3632813,0.5625,44.19084,-57.70229,91.03053
-0.277832,0.04492188,0.8623047,28.77863,52.00763,26.78626
-0.2260742,0.2299805,1.283691,-1.732824,-17.98473,-10.92366
-0.2270508,0,0.7973633,-14.87786,56.42748,-27.93893
-0.5878906,-0.1054688,0.7861328,-1.251908,-40.12214,19.0687
-0.1083984,-0.06591797,1.053711,8.580153,-36.9771,26.49618
0.03320313,-0.277832,0.9350587,-33.1145,6.435114,7.099236
0.02246094,-0.3408203,0.831543,-115.6718,18.39695,-6.274809
0.3120117,-0.5219727,0.8100587,9.923664,-47.43512,-45.14504
0.5893555,-0.3183594,0.8789063,40.62595,-18.03817,-7.236641
0.4541016,-0.269043,0.6982422,-27.49618,-49.32824,35.77863
0.5566406,-0.3422852,0.6474609,-8.572519,-31.77099,12.54962
0.5825195,-0.2651367,0.8481445,-7.221374,1.557252,6.122138
0.6542969,-0.2509766,0.9477539,-0.7862596,-0.832061,17.77099
0.4814453,-0.3774414,0.6962891,18.87023,-19.07634,34.50382
0.5585938,-0.3461914,0.7192383,25.07634,0.1984733,-8.007633
0.3969727,-0.1767578,0.8413086,52.85496,22.68702,15.69466
0.4160156,-0.07763672,0.8666992,30.00763,13.43511,13.68702
0.3779297,-0.1240234,0.8950195,19.32825,8.450381,20.9542
0.3369141,0.02001953,0.940918,31.42748,7.412214,15.58779
0.2260742,0.2211914,0.9487305,20.24427,5.229008,19.74046
0.2875977,0.2070313,0.9321289,-5.572519,-3.221374,-5.80916
0.2919922,0.2119141,0.9125977,-8.778625,8.053435,-12.58779
0.2045898,0.1757813,0.9404297,-15.76336,17.25191,-19.82443
0.1445313,0.2207031,0.9726563,-0.4351145,23.74046,-15.51908
-0.07617188,0.1123047,0.9624023,-2.335878,14.32824,-10.15267
0.2226563,0.07763672,0.9106445,-78.47328,-78.09161,14
0.3466797,-0.2807617,0.8408203,-67.64886,-12.22137,76.64122
0.04345703,-0.4487305,0.8891602,-0.06870229,-11.9084,43.48855
0.1635742,-0.4770508,0.8417969,-3.748092,-0.7328244,5.687023
0.190918,-0.4682617,0.8378906,-1.557252,-2.503817,-9.755725
0.1674805,-0.456543,0.8652344,7.870229,8.106871,-73.85497
0.2607422,-0.2856445,0.8896484,7.679389,11.61069,-95.65649
0.3691406,-0.1791992,0.9160156,6.839694,-28.91603,-39.05344
0.5258789,-0.09228517,0.6572266,33.31298,-27.29771,-19.08397
0.7270508,0.06054688,0.6523438,-1.59542,-47.87023,-45.8855
0.8950195,0.109375,0.574707,-17.06107,-18.61832,-18.46565
0.8574219,0.1938477,0.5932617,2.259542,4.221374,-2.198473
0.8837891,0.1289063,0.5112305,16.46565,9.633588,-6.824428
0.8232422,0.1635742,0.5703125,0.5496183,3.48855,-1.206107
0.8071289,0.1777344,0.578125,-3.961832,3.122137,-2.061069
0.8095703,0.175293,0.5703125,-8.847328,-4.290076,-0.6870229
0.6640625,0.06982422,0.6391602,-42.87786,18.45038,20.21374
0.6850586,-0.09472656,0.6806641,-12.56489,-7.587786,51.96947
0.7636719,-0.1875,0.703125,-13.06107,15.48092,-3.259542
0.7109375,-0.2851563,0.6850586,-27.26718,41.56488,-9.183207
0.5268555,-0.4536133,0.6933594,12.29771,19.00763,31.03053
0.3105469,-0.4116211,0.8295898,-13.35878,15.9771,13.73282
0.2421875,-0.4804688,0.784668,-28.32825,20.1374,-22.0458
0.2104492,-0.5893555,0.7143555,-26.21374,1.648855,5.29771
0.2685547,-0.6455078,0.6616211,-8.068703,1.656489,3.091603
0.2670898,-0.6396484,0.7324219,-12.75572,9.129771,-14.93893
0.3613281,-0.6831055,0.6230469,-5.61832,-5.900764,-31.63359
0.4589844,-0.6953125,0.4985352,-3.89313,-14.94656,-23.9771
0.5424805,-0.5854492,0.4370117,21.52672,-58,-22.44275
0.7480469,-0.3701172,0.5039063,27.40458,-40.61832,-20.39695
0.8359375,-0.234375,0.5146484,22.99237,-8.427481,-20.92366
0.7890625,-0.08496094,0.5634766,10.22137,20.0458,-31.1145
0.7680664,0.1489258,0.6352539,27.64122,-23.82443,-2.259542
0.8261719,0.1333008,0.5957031,0.5038168,11.78626,-10.86259
0.8520508,0.1801758,0.5908203,-3.671756,7.290076,17.84733
0.7871094,0.1621094,0.6108398,-5.832061,1.51145,1.534351
0.7661133,0.1748047,0.609375,12.87786,-10.34351,1.259542
0.8222656,0.1728516,0.6049805,-2.427481,-0.3053435,1.603053
0.8139648,0.1420898,0.5839844,-1.862595,-1.900763,3.061069
0.8334961,0.1357422,0.5854492,-2.503817,-4.351145,0.04580153
0.8466797,0.1230469,0.5507813,-1.984733,-0.5496183,0.8015267
0.8325195,0.1337891,0.5693359,-0.04580153,7.603054,-2.541985
0.8325195,0.1069336,0.6279297,-19.26718,23.74046,6.236641
0.7607422,-0.05810547,0.6992188,-10.90076,64.52672,69.74809
0.2900391,-0.1289063,0.8945313,-22.18321,70.82442,-6.137404
0.1552734,-0.2939453,0.8779297,-23.64886,1.725191,40.96947
0.07519531,-0.3442383,0.8618164,-18.58015,76.32825,-27.29008
-0.01123047,-0.3134766,0.9169922,-10.84733,-13.14504,57.35115
-0.04101563,-0.3271484,0.90625,-3.984733,-8.80916,13.33588
-0.07080078,-0.4179688,0.8725586,-17.48092,-0.6564885,-15.79389
-0.008300781,-0.4350586,0.868164,-9.297709,11.38931,-16.48855
-0.09033203,-0.5009766,0.8066406,-8.969465,4.282443,-15.45802
-0.0546875,-0.4951172,0.8056641,-10.41221,2.89313,-11.9084
-0.03222656,-0.4897461,0.8583984,-0.480916,-10.91603,-19.05343
0.05908203,-0.4863281,0.8388672,-6.580153,-4.961832,-18.03817
0.1308594,-0.4897461,0.8574219,3.320611,-4.045802,-36.54962
0.1489258,-0.4692383,0.7421875,-10,-46.98473,-31.0687
0.7045898,-0.2099609,1.134766,37.35115,13.73282,-76.73283
0.3032227,-0.4956055,0.8081055,-25.48855,-1.587786,12.78626
0.3881836,-0.487793,0.7719727,-0.9770992,-28.22137,-8.679389
0.465332,-0.484375,0.640625,25.48092,4.160306,-47.40458
0.5473633,-0.3676758,0.7446289,8.175572,8.450381,-32.57252
0.5483398,-0.206543,0.8222656,4.984733,-23.41221,0.7251908
0.6069336,-0.2197266,0.7402344,22.47328,-2.854962,-29.22137
0.5888672,-0.001953125,0.800293,22.72519,17.82443,-4.580153
0.5498047,0.03417969,0.8208008,7.183206,2.541985,-9.770992
0.5854492,0.09033203,0.8154297,15.12977,-4.053435,6.526718
0.5996093,0.1425781,0.7685547,13.14504,4.48855,-5.931298
0.5991211,0.1894531,0.7607422,11.0687,-0.3740458,3.015267
0.6416016,0.2783203,0.7685547,14.40458,-2.083969,4.328244
0.5639648,0.3486328,0.746582,18.32825,-0.259542,-10.64886
0.5991211,0.3691406,0.6640625,11.8855,-0.7709923,-7.59542
0.5454102,0.5195313,0.6723633,6.351145,-4.137404,0.5496183
0.6166992,0.5014648,0.6503907,2.29771,0.2061069,-4.152672
0.6293945,0.5249023,0.621582,-1.832061,-4.450382,0.6793893
0.6000977,0.4858398,0.5849609,-7.091603,0.2061069,-0.8549618
0.6025391,0.5117188,0.6342773,-3.366412,-0.03816794,3.183206
0.6132813,0.5214844,0.6357422,-1.358779,4.40458,-1.954198
0.6103516,0.5610352,0.6582031,7.480916,-2.694656,10.73282
0.5932617,0.5546875,0.65625,-6.839694,4.229008,-0.9694656
0.5986328,0.5439454,0.6430664,-4.030534,-4.259542,-1.473282
0.6030273,0.4926758,0.628418,-3.083969,3.312977,-3.21374
0.6206055,0.5048828,0.6074219,-7.335878,-4.183206,4.778626
0.6166992,0.4892578,0.631836,-7.717557,3.343511,-1.396947
0.5854492,0.4775391,0.6435547,-16.0229,8.900764,1.183206
0.5039063,0.4125977,0.6791992,4.206107,2.80916,8.839695
0.8471681,0.3481445,0.6279297,2.068702,-24.67939,35.61069
0.5600586,0.4086914,0.7485352,-4.305344,-1.114504,8.221375
0.5927734,0.3598633,0.7924805,-15.83206,6.160306,10.41985
0.6557617,0.2910156,0.8032227,-29.96183,12.49618,15.48092
0.5859375,0.1010742,0.8471681,-16.40458,-2.625954,33.41985
0.4335938,-0.0546875,0.8222656,-21.8855,5.160306,41.71756
0.4741211,-0.1621094,0.8833008,-7.259542,6.305344,28.38168
0.4086914,-0.2548828,0.9003907,-17.25191,3.496183,22.19084
0.3759766,-0.3291016,0.8759766,-4.038168,19.71756,-5.625954
0.3417969,-0.3657227,0.8901367,-6.022901,6.610687,-0.2900764
0.3183594,-0.418457,0.8476563,-12,0.6335878,-5.572519
0.3383789,-0.4487305,0.8164063,-6.503817,-3.221374,-5.053435
0.3901367,-0.4536133,0.8149413,-12.91603,6.885496,0.7633588
0.3383789,-0.4262695,0.8095703,-13.94656,7.78626,5.343512
0.2290039,-0.5493164,0.7832031,-8.832061,4.625954,7.557252
0.2373047,-0.546875,0.7758789,-6.687023,2.045802,-5.503817
0.2138672,-0.5600586,0.7827148,-3.244275,-3.870229,-0.7633588
0.1879883,-0.5493164,0.7729492,-1.335878,-5.244275,-13.40458
0.2841797,-0.453125,0.7788086,5.923664,4.129771,-53.99237
0.4819336,-0.4106445,0.828125,14.24428,-13.64122,-32.28244
0.4702148,-0.2597656,0.7143555,10.76336,-38.26717,-16.70229
0.6533203,-0.1396484,0.734375,20.99237,-18.83206,-22.35878
0.7182617,-0.07519531,0.7060546,9.496183,-13.41985,-13.70992
0.7441406,-0.03125,0.6577148,3.022901,-2.770992,-9.19084
0.7441406,0.02880859,0.6865234,-0.2366412,4.610687,-4.21374
0.7509766,0.01171875,0.6889648,-1.015267,2.145038,2.984733
0.7260742,-0.02539062,0.6962891,-1.419847,3.167939,-5.900764
0.7216797,-0.05957031,0.6918945,-4.732825,2.442748,-2.671756
0.7788086,-0.04492188,0.7514648,-21.46565,48.1145,27.38931
0.456543,-0.3442383,0.7709961,-21.51145,12.70229,61.80153
0.262207,-0.5053711,0.7719727,-4.442748,-3.015267,2.541985
0.2841797,-0.472168,0.8198242,-8.282443,7.221374,-8.78626
0.3388672,-0.4624023,0.7807617,-7.648855,-4.938932,-12.03053
0.3901367,-0.4335938,0.7949219,-0.6946565,-10.72519,-16.93893
0.4189453,-0.4243164,0.7402344,-3.740458,-20.39695,-14.48092
0.5766602,-0.3461914,0.7329102,13.22901,-30.93893,-37.94656
0.6772461,-0.2729492,0.6630859,14.34351,-16,-2.114504
0.753418,-0.02783203,0.7260742,8.358779,15.16794,-48.36641
0.6962891,0.1040039,0.730957,21.74046,16.70992,-37.1832
0.7089844,0.1918945,0.7817383,8.458015,35.20611,-14.09924
0.5810546,0.1708984,0.690918,38.1832,3.48855,-1.59542
0.6884766,0.4296875,0.8193359,2.534351,-2.496183,10.30534
0.6083984,0.3896484,0.6757813,5.900764,-2.534351,-7.450382
0.6103516,0.3422852,0.6123047,-19.83206,-2.091603,3.709924
0.6079102,0.3369141,0.7348633,-30.99237,14.21374,4.625954
0.5454102,0.2617188,0.8276367,-9.198473,24.83206,7.045802
0.3530273,0.2285156,0.9111328,-13.74809,42.27481,-4.854962
0.1826172,0.1796875,0.9663086,-9.145039,24.58015,-1.954198
0.1293945,0.159668,0.9780273,-3.21374,3.21374,-1.076336
0.1210938,0.1538086,0.9794922,-3.938931,-0.4045802,-1.748092
0.1108398,0.137207,0.9658203,-5.946565,-1,-1.48855
0.1206055,0.1518555,0.9619141,-5.40458,-11.70992,-0.5801527
0.1655273,0.1274414,0.9833984,2.19084,-8.938931,-5.526718
0.1533203,0.1171875,0.9692383,-4.236641,2.412214,-3.114504
0.01806641,0.1591797,1.070313,0.8015267,29.89313,-17.20611
0.1201172,0.03271484,0.949707,-16.61069,-15.14504,-31.48092
0.2373047,-0.04589844,0.996582,-21.53435,-12.45802,-29.0458
0.2597656,-0.06445313,0.9350587,0.3664122,-19.49618,-3.755725
0.2900391,-0.02294922,0.9487305,-3.21374,0.7480916,3.778626
0.3046875,-0.05224609,0.9399413,-4.442748,5.389313,1.175573
0.3012695,-0.03271484,0.9394531,-3.442748,-1.389313,1.664122
0.3105469,-0.03857422,0.9360352,-2.473282,-1.801527,2.343511
0.3188477,-0.04101563,0.9516602,-2.916031,-1.801527,0.8015267
0.3369141,-0.04394531,0.9296875,-3.076336,-5.610687,0.3969466
0.3334961,-0.03662109,0.9394531,-2.282443,-5.763359,1.801527
0.3798828,-0.05517578,0.9472656,-2.832061,-4.51145,9.648855
0.3510742,-0.03369141,0.9155273,7.717557,-7.312977,10.16794
0.3745117,-0.001464844,0.9174805,-0.5725191,2.931298,2.51145
0.3779297,-0.008789062,0.9101563,0.6183206,0.7938931,2.450382
0.3408203,-0.02685547,0.8989258,-3.160305,-0.870229,-1.70229
0.3740234,-0.000976562,0.9423828,-2.274809,-2.908397,3.091603
0.3554688,0.00390625,0.9453125,-3.244275,-1.290076,1.229008
0.3598633,-0.008789062,0.9306641,-2.816794,3.122137,-0.8167939
0.34375,-0.004882812,0.9106445,-2.992366,2.442748,-0.08396947
0.3710938,-0.01806641,0.9331055,-2.725191,3.48855,-0.08396947
0.3676758,-0.01025391,0.9326172,-5.236641,4.549618,-0.778626
0.3408203,-0.03564453,0.9111328,-5.114504,1.78626,3.564886
0.340332,-0.04833984,0.9194336,-5.335878,-10.77099,2.755725
0.3457031,-0.04003906,0.9375001,-2.175573,-5.412214,-1.778626
0.3632813,-0.03320313,0.9282227,-1.91603,-2.244275,-0.5648855
0.3710938,-0.02978516,0.9243164,-1.534351,-1.725191,-1.725191
0.3623047,-0.03173828,0.9291992,-3,-1.038168,-0.5725191
0.3652344,-0.03271484,0.9189454,-4.412214,0.9465649,0.5419848
0.3769531,-0.02783203,0.9033203,-6.015267,-11.84733,1.160305
0.409668,-0.04199219,0.9414063,-8.625955,-4.38168,2.564886
0.4355469,-0.06054688,0.9267578,-0.6564885,-14.41985,-0.2366412
0.4389648,-0.04980469,0.8833008,3.526718,-4.19084,-2.839695
0.4619141,-0.05029297,0.8710938,-1.267176,-0.1374046,-2.175573
0.4453125,-0.03955078,0.8779297,-2.236641,0.02290076,-0.961832
0.4467773,-0.02685547,0.8793945,-2.78626,1.51145,-1.946565
0.4746094,-0.03759766,0.8945313,-4.152672,-2.083969,-2.244275
0.4702148,-0.04296875,0.8803711,-8.625955,-4.763359,-3.946565
0.4580078,-0.03955078,0.8725586,-0.3740458,2.580153,0.8091603
0.4663086,-0.02392578,0.8803711,4.442748,4.839694,-0.519084
0.4790039,0.01416016,0.9101563,1.122137,3.633588,-1.946565
0.4526367,0.000976562,0.9077148,-8.877863,1.358779,-3.984733
0.4619141,0.005859375,0.8881836,0.4427481,-2.48855,-2.221374
0.4575195,0.01757812,0.8710938,1.854962,0.7175572,10.35878
0.5117188,-0.02929688,0.8203125,10.0229,-22.52672,27.33588
0.590332,-0.08349609,0.8173828,-2.053435,-13.45802,30.07634
0.5512695,-0.06884766,0.8085938,10.89313,-20.21374,10.80153
0.5947266,-0.06103516,0.7602539,3.282443,-1.229008,5.908397
0.6391602,-0.046875,0.7895508,-5.61832,-5.541985,2.396947
0.5810546,-0.04199219,0.8334961,5.10687,5.847328,1.396947
0.5820313,-0.04394531,0.7998047,-1.206107,-1.343511,-1.465649
0.5957031,-0.03515625,0.8037109,-0.7022901,-2.175573,2.564886
0.5449219,-0.04150391,0.7436523,12.83969,-9.450381,-3.603053
0.5961914,0.04443359,0.8452148,-9.053435,17.0687,-48.27481
0.5117188,0.1289063,0.8579102,-3.80916,23.89313,-31.77863
0.3955078,0.1542969,0.8911133,-5.480916,14.35878,-24.00763
0.3774414,0.1420898,0.8686523,-15.82443,-0.5343512,-21.59542
0.3100586,0.1538086,0.8916016,-5.473282,0.9923665,-22.34351
0.3125,0.1835938,0.9472656,-8.19084,-23.85496,-12.9084
0.2446289,0.2021484,0.9033203,4.221374,1.877863,-1.900763
0.237793,0.2207031,0.9106445,10.16031,18.91603,11.87786
0.2456055,0.28125,0.9707031,6.351145,32.73283,1.465649
0.06787109,0.3383789,0.9238281,-2.305344,17.64886,-4.473282
0.01513672,0.3623047,0.9326172,-8.038168,8.206107,-2
0.01318359,0.3393555,0.9228516,-15.61832,-18.19847,1.435114
0.1459961,0.4169922,1.059082,-26.79389,-35.1832,-22.70229
0.3339844,0.1098633,0.9799805,-22.35114,-9.59542,5.541985
0.3271484,0.06103516,0.9404297,-22.43511,-28.21374,-9.664123
0.4145508,-0.03173828,0.8950195,-9.977099,-12.19084,-2.839695
0.4335938,-0.02099609,0.8574219,-5.267175,-15.18321,-5.022901
0.4985352,-0.02978516,0.8300781,-7.473282,-7.824428,-0.8015267
0.5283203,0.000976562,0.8442383,-5.229008,-9.251908,3.160305
0.5620117,0.01074219,0.7817383,0.1603054,-10.26718,-0.5343512
0.637207,0.02685547,0.7861328,-4.427481,-7.351145,4.198473
0.6499023,0.02685547,0.7807617,-4.068702,-8.732824,7.251908
0.6035156,0.03271484,0.7480469,-5.526718,-0.1221374,3.541985
0.7163086,0.02832031,0.7412109,3.603053,-0.259542,-1.091603
0.6728516,0.02783203,0.7709961,-5.21374,-2.366412,0.9847328
0.6962891,0.02880859,0.746582,1.656489,-1.557252,1.167939
0.6679688,0.03662109,0.762207,-6.847328,0.01526718,-0.832061
0.65625,0.03466797,0.7373047,-5.633588,0.4351145,1.099237
0.668457,0.03222656,0.7666016,-6.145038,8.877863,4.564886
0.6586914,-0.02734375,0.8061523,-21.00763,42.1145,-12.18321
0.6069336,-0.04199219,0.8110352,3.351145,10.37405,1.496183
0.5273438,-0.1015625,0.8178711,-8.580153,17.57252,29.49618
0.4467773,-0.1977539,0.8413086,-5.877862,13.58779,65.71756
0.3354492,-0.2573242,0.8989258,-4.206107,11.53435,19.87786
0.2456055,-0.1831055,0.9389648,3.236641,3.832061,-15.61832
0.277832,-0.2333984,0.9213866,1.816794,2.442748,-11.66412
0.2211914,-0.1933594,0.9350587,0.4732824,0.3740458,2.648855
0.2124023,-0.1914063,0.8740234,-4.137404,-9.564885,5.51145
0.171875,-0.2075195,0.8862305,-3.274809,-4.778626,-3.541985
0.2290039,-0.1899414,0.9482422,-3.312977,2.137405,-0.7938931
0.2260742,-0.1884766,0.9536134,-1.221374,3.694656,-1.801527
0.2685547,-0.1625977,0.9790039,4.442748,3.145038,-3.229008
0.2451172,-0.1665039,0.9858398,0.2137404,0.7480916,-6.557252
0.2255859,-0.1699219,0.9165039,-0.1755725,-0.8167939,-4.557252
0.2612305,-0.1401367,0.9038086,-5.709924,-14.76336,7.648855
0.2480469,-0.1699219,0.9428711,-1.961832,-2.70229,-0.9694656
0.2441406,-0.1489258,0.9414063,-4.748092,-12.92366,-1.015267
0.3554688,-0.03662109,0.9101563,21.96947,-31.59542,-67.49619
0.6420898,0.203125,0.9755859,41.19084,14.65649,-27.15267
0.4233398,0.2250977,0.8632813,11.83206,17.10687,-13.51908
0.2827148,0.3164063,0.9702148,-13.91603,80.70229,-14.70992
0.1342773,0.121582,0.8979492,-30.93893,12.05344,17.1145
0.1000977,0.06787109,1.019531,-4.824428,-0.9083969,-4.015267
0.0234375,0.05712891,0.9804688,8.610687,13.89313,-5.854962
-0.008789062,0.08154297,0.9287109,9.847328,20.87786,-5.053435
-0.1308594,0.1264648,0.9301758,-3.656489,10.87023,-3.10687
-0.112793,0.1206055,0.9555664,-3.89313,9.832061,-1.687023
-0.2021484,0.07568359,1.030762,-14.90076,27.96183,12.0458
-0.2075195,0.06542969,0.9140625,-12.41985,-0.7251908,1.251908
-0.1469727,0.03466797,1.034668,-0.4961833,-20.78626,-11.60305
-0.07177734,0.02539062,1.032227,-31.50382,46.96183,1.312977
-0.2895508,0.02832031,0.9560546,8.763359,26.39695,-17.81679
-0.1425781,-0.06201172,0.9721681,-12.69466,-20.65649,12.83969
-0.1640625,-0.09863281,1.04834,-5.198473,-82.26717,1.977099
-0.03369141,-0.02880859,1.025879,1.618321,-53.61069,-9.053435
0.07177734,-0.01367188,1.004395,0.4198473,29.32825,1.320611
-0.07714844,-0.078125,0.8325195,-69.12977,17.0916,-9.206107
-0.03857422,-0.1567383,0.9638672,8.007633,11.41221,-10.17557
0.001464844,-0.2836914,0.9165039,-14.61069,-14.45038,6.030534
-0.03173828,-0.3198242,0.9130859,-25.12977,-0.1221374,1.801527
0.1000977,-0.3798828,0.9282227,-22.18321,-31.19084,10.66412
0.1796875,-0.4160156,0.9467773,4.045802,-7.656488,2.091603
0.1655273,-0.3310547,0.9750977,43.28244,11.78626,-33.65649
0.2231445,-0.2661133,0.9008789,10.96947,1.145038,-11.89313
0.2426758,-0.2495117,0.9316406,5.129771,5.587786,-7.946565
0.2802734,-0.1928711,0.9814453,1.145038,4.038168,-3.29771
0.2592773,-0.1958008,0.9458008,9.183207,-4.175572,-6.763359
0.2773438,-0.1357422,0.8881836,33.70229,-9.114504,-27.26718
0.3935547,0.07861328,0.940918,25.56489,-2.572519,-12.9542
0.3481445,0.2041016,0.8642578,10.51145,1.633588,-6.900764
0.4316407,0.2172852,0.8325195,11.70992,-4.969466,1.358779
0.3916016,0.2666016,0.9472656,-0.1526718,6.91603,-7.954198
0.3364258,0.2426758,0.8637695,4.900764,-0.1755725,-2.755725
0.3554688,0.2944336,0.909668,1.541985,-0.3206107,-3.832061
0.355957,0.3276367,0.9208984,0.4122138,18.43511,-2.603053
0.2758789,0.3291016,0.9287109,2.954198,2.877863,-3.435114
0.1577148,0.3540039,0.940918,1.251908,26.93893,-11.52672
0.06933594,0.3637695,0.9438477,1.839695,35.94657,-17.17557
-0.08251953,0.3823242,0.8999023,0.8931297,13.52672,-7.045802
-0.125,0.3710938,0.9003907,-3.625954,0.9847328,-2.175573
-0.05810547,0.3647461,0.9008789,-6.480916,-7.885496,2.641221
-0.04736328,0.3701172,0.8891602,-6.419847,-7.89313,3.015267
-0.02392578,0.3535156,0.9072266,-11.73282,-4.80916,-1.748092
0.03515625,0.2905273,0.9257813,-14.32824,-16.43511,2.992366
0.05859375,0.2314453,0.9311523,-13.89313,-14.16794,2.854962
0.07080078,0.1904297,0.9086914,-12.05344,-8.435115,-3.89313
0.1367188,0.1489258,0.9296875,-10.44275,-14.63359,-13.32061
0.2392578,0.1044922,0.9511719,-8.755725,-23.35878,5.480916
0.28125,0.1015625,0.9697266,-0.007633588,-13.35878,-1.320611
0.3671875,0.1044922,0.9394531,-2.160305,-19.08397,10.62595
0.4599609,0.06787109,0.9296875,-4.267176,-13.99237,10.74809
0.5058594,0.03271484,0.8764648,-6.08397,-9.229008,11.0687
0.5478516,0.001953125,0.8554688,-2.854962,-13.90076,18.64122
0.5732422,-0.03417969,0.855957,-2.458015,-2.78626,9.503817
0.53125,-0.05175781,0.8178711,3.503817,-5.671756,3.931298
0.6279297,-0.04882813,0.8959961,-8.335877,31.54198,21.29771
0.4790039,-0.1347656,0.8217773,3.954198,20.49618,0.7480916
0.4648438,-0.1870117,0.8442383,-3.412214,5.152672,4.167939
0.4736328,-0.1816406,0.8564453,-1.259542,-4.312977,15.90076
0.4277344,-0.1787109,0.8710938,-1.664122,1.618321,1.755725
0.4375,-0.2148438,0.8525391,-6.091603,10.80916,-30.81679
0.4462891,-0.1884766,0.8696289,-5.633588,-0.09160305,-0.5343512
0.4233398,-0.2436523,0.8266602,-10.01527,3.282443,-10.1374
0.4169922,-0.215332,0.8256836,-5.274809,-4.770992,-6.78626
0.409668,-0.2197266,0.8012695,-7.755725,-8.671757,5.152672
0.4238281,-0.2148438,0.8549805,-5.870229,1.381679,-9.877864
0.5,-0.2119141,0.8554688,-0.07633588,1.78626,-6.137404
0.4560547,-0.1875,0.8300781,-3.061069,3.099237,-5.351145
0.4887695,-0.1870117,0.8740234,-4.648855,1.167939,2.274809
0.4956055,-0.1855469,0.8466797,-2.908397,1.282443,-0.5801527
0.4736328,-0.1879883,0.8471681,-3.946565,-2.167939,4.427481
0.5395508,-0.1889648,0.918457,-5.89313,-3.221374,2.687023
0.5053711,-0.2114258,0.8349609,0.4198473,0.7022901,2.374046
0.4042969,-0.2119141,0.8393555,-8.687023,9.534351,-6.145038
0.4023438,-0.2211914,0.8422852,-8.274809,5.038168,-2.671756
0.3823242,-0.1821289,0.8925781,-5.664122,-5.114504,11.83969
0.3759766,-0.2231445,0.8457031,-0.1526718,2.793893,-1.664122
0.4355469,-0.1210938,0.9316406,15.94656,28.9313,-72.48092
0.2451172,-0.03027344,0.9394531,16.52672,144.2366,-6.198473
-0.1191406,0.112793,1.210938,-35.28244,11.16031,-43.9084
-0.09423828,-0.2543945,0.8115234,-104.2137,5.48855,-51.55725
0.2910156,-0.4799805,0.7207031,38.40458,1.08397,-60.67176
0.08203125,-0.125,1.078613,38.38168,-17.17557,-12.44275
0.1538086,-0.1738281,1.088867,17.35878,-54.48855,-32.0458
0.3681641,-0.1767578,0.9140625,-2.832061,-30.05344,-26.50382
0.3681641,-0.08447266,0.7792969,9.908397,-5.969466,-12.39695
0.4321289,0.07421875,0.7250977,25.58015,-156.9237,-47.1832
0.6010742,0.1313477,0.9360352,12.61832,10.99237,-9.488549
0.2915039,0.08789063,1.031738,-42.38168,250.1298,21.78626
0.1020508,-0.001464844,0.9570313,-6.603054,4.503817,-0.1221374
0.07470703,-0.009765625,0.9799805,-5.10687,2.061069,-0.740458
0.06542969,-0.01464844,0.9770508,-4.847328,1.587786,-0.4885496
0.06298828,-0.01953125,0.9804688,-4.305344,1.007634,-0.6793893
0.06005859,-0.02050781,0.9838867,-4.358778,1.038168,-0.7175572
0.05029297,-0.03076172,0.9814453,-4.183206,1.198473,-0.8931297
0.04199219,-0.03564453,0.9780273,-4.114504,1.076336,-0.9236641
0.05078125,-0.04248047,0.980957,-3.824427,0.8167939,-1.038168
0.04638672,-0.03564453,0.9799805,-3.80916,0.8396947,-0.8854962
0.04199219,-0.04541016,0.984375,-4.091603,0.7709923,-0.8931297
0.03710938,-0.04052734,0.9716797,-3.770992,0.8167939,-1.038168
0.03564453,-0.04296875,0.9760742,-3.977099,0.6412214,-0.870229
0.03662109,-0.05175781,0.9819336,-3.748092,0.6564885,-0.8854962
0.03271484,-0.04833984,0.9804688,-3.694656,0.7862596,-0.9083969
0.02929688,-0.0546875,0.987793,-3.755725,0.6412214,-1.038168
0.03027344,-0.05078125,0.9838867,-3.70229,0.6030535,-0.9923665
0.01806641,-0.05371094,0.9790039,-3.870229,0.6183206,-1.229008
0.02783203,-0.05859375,0.9833984,-3.679389,0.7099237,-1
0.02294922,-0.05761719,0.9833984,-3.679389,0.6030535,-1.076336
0.01806641,-0.0625,0.9707031,-3.770992,0.4656488,-0.9923665
0.01416016,-0.06152344,0.984375,-3.687023,0.5419848,-0.9389313
0.01367188,-0.0625,0.9814453,-3.70229,0.519084,-0.961832
0.01708984,-0.05859375,0.984375,-3.755725,0.4427481,-0.9923665
0.01318359,-0.06787109,0.9780273,-3.610687,0.6793893,-1
0.015625,-0.0703125,0.9794922,-3.572519,0.2824428,-1.030534
0.009765625,-0.07080078,0.9833984,-3.59542,0.3969466,-0.9083969
0.008789062,-0.0703125,0.9775391,-3.740458,0.4122138,-0.8854962
0.005859375,-0.07910156,0.9775391,-3.580153,0.3587786,-0.9847328
0.00390625,-0.07128906,0.9863281,-3.603053,0.3740458,-0.9923665
0.005859375,-0.07568359,0.9726563,-3.442748,0.4961833,-1.175573
0.004394531,-0.07519531,0.9833984,-3.274809,0.3129771,-1.007634
0.001953125,-0.07421875,0.9721681,-3.526718,0.4198473,-1.061069
0.00390625,-0.07763672,0.9765625,-3.648855,0.2900764,-1.015267
0.001953125,-0.07910156,0.9775391,-3.419847,0.3435115,-1.099237
-0.002441406,-0.08056641,0.9746093,-3.70229,0.480916,-1.145038
0.007324219,-0.08300781,0.980957,-3.374046,0.480916,-0.9465649
-0.005859375,-0.08300781,0.9829102,-3.435114,0.4045802,-0.961832
0.001464844,-0.08349609,0.9794922,-3.580153,0.3282443,-0.9770992
0.002441406,-0.08496094,0.980957,-3.564886,0.3969466,-1.068702
0,-0.07910156,0.9760742,-3.351145,0.2977099,-1.267176
-0.004394531,-0.09033203,0.9799805,-3.251908,0.3129771,-0.8778625
0.002929688,-0.09228517,0.9716797,-3.435114,0.1908397,-1.015267
-0.002929688,-0.08300781,0.9702148,-3.328244,0.5114504,-0.9847328
-0.005859375,-0.08642578,0.9794922,-3.389313,0.2442748,-1.160305
-0.005859375,-0.08056641,0.9746093,-3.564886,0.3664122,-1.328244
-0.0078125,-0.08691406,0.9790039,-3.458015,0.259542,-1.29771
-0.00390625,-0.09570313,0.9824219,-3.366412,0.4198473,-1.152672
-0.009277344,-0.08789063,0.9731445,-3.564886,0.2442748,-1.068702
-0.003417969,-0.08544922,0.9790039,-3.572519,0.2213741,-0.8931297
-0.0078125,-0.08789063,0.9755859,-3.427481,0.2977099,-0.9694656
-0.007324219,-0.08789063,0.9711914,-3.549618,0.03816794,-1.022901
-0.006835938,-0.08837891,0.965332,-3.442748,0.351145,-1.137405
-0.00390625,-0.08789063,0.984375,-3.458015,0.2442748,-1.053435
-0.007324219,-0.09326172,0.9775391,-3.549618,0.2977099,-1.267176
-0.007324219,-0.08837891,0.9677734,-3.366412,0.1984733,-1.137405
-0.008789062,-0.08300781,0.9746093,-3.59542,0.08396947,-1.145038
-0.007324219,-0.08935547,0.9697266,-3.473282,0.2748091,-1.19084
-0.005859375,-0.09326172,0.980957,-3.442748,0.1526718,-1.038168
-0.01611328,-0.08837891,0.9790039,-3.480916,0.3358779,-1.10687
-0.005859375,-0.09619141,0.9667969,-3.351145,0.1984733,-0.9770992
-0.01123047,-0.08740234,0.9799805,-3.519084,0.1679389,-1.076336
-0.01171875,-0.08789063,0.9775391,-3.358779,0.259542,-1.08397
-0.01025391,-0.09814453,0.9750977,-3.274809,0.3358779,-1.167939
-0.009277344,-0.09228517,0.9765625,-3.335878,0.3206107,-0.9770992
-0.01025391,-0.09375,0.9785156,-3.282443,0.1603054,-1.19084
-0.006835938,-0.08984375,0.9658203,-3.48855,0.3206107,-1.08397
-0.01464844,-0.09130859,0.9829102,-3.290076,0.2977099,-1.045802
-0.01220703,-0.08984375,0.9721681,-3.564886,0.389313,-0.9465649
-0.01220703,-0.09375,0.9868164,-3.335878,0.3053435,-1.206107
-0.01513672,-0.09033203,0.9790039,-3.450382,0.4122138,-1.122137
-0.02099609,-0.09375,0.9741211,-3.587786,0.1984733,-1.053435
-0.01416016,-0.09130859,0.9726563,-3.396947,0.4045802,-1.10687
-0.01416016,-0.09472656,0.9760742,-3.320611,0.389313,-0.9236641
-0.01367188,-0.09228517,0.9741211,-3.320611,0.3053435,-1.091603
-0.01660156,-0.09472656,0.9716797,-3.496183,0.351145,-1.10687
-0.01464844,-0.08935547,0.9736328,-3.427481,0.1450382,-1.022901
-0.01855469,-0.09179688,0.9707031,-3.40458,0.1832061,-0.9236641
-0.01757812,-0.1000977,0.9775391,-3.564886,0.3282443,-1.366412
-0.01269531,-0.09375,0.9794922,-3.503817,0.3816794,-0.8778625
-0.01416016,-0.09570313,0.9721681,-3.503817,0.2061069,-1.022901
-0.009277344,-0.09765625,0.9790039,-3.381679,0.2442748,-1.08397
-0.02392578,-0.08984375,0.9829102,-3.290076,0.02290076,-1.08397
-0.01269531,-0.09228517,0.9736328,-3.450382,0.4427481,-0.9007633
-0.01806641,-0.09667969,0.9755859,-3.427481,0.129771,-1.221374
-0.02099609,-0.09667969,0.9770508,-3.29771,0.1221374,-0.961832
-0.01416016,-0.09326172,0.9731445,-3.29771,0,-1.061069
-0.02001953,-0.09472656,0.9833984,-3.343511,0.09160305,-1.091603
-0.01660156,-0.09521483,0.9746093,-3.442748,0.2061069,-0.9923665
-0.01855469,-0.09667969,0.9736328,-3.473282,0.2061069,-1.137405
-0.01855469,-0.09326172,0.9672852,-3.267176,0.1526718,-1.129771
-0.02392578,-0.09619141,0.9765625,-3.312977,0.2977099,-1.076336
-0.01904297,-0.09570313,0.9775391,-3.519084,0.2519084,-1.022901
-0.01904297,-0.09570313,0.9750977,-3.473282,0.2900764,-1.030534
-0.01757812,-0.1010742,0.9780273,-3.458015,0.1603054,-1.022901
-0.02001953,-0.09912109,0.9643555,-3.366412,0.2290076,-1.022901
-0.02148438,-0.09667969,0.9804688,-3.419847,0.259542,-1.015267
-0.02441406,-0.09619141,0.9702148,-3.473282,0.1603054,-1.183206
-0.01806641,-0.09765625,0.9721681,-3.412214,0,-1.08397
-0.01464844,-0.09765625,0.9726563,-3.618321,0.2900764,-1.015267
-0.02539062,-0.09863281,0.9726563,-3.419847,0.389313,-1.175573
-0.01855469,-0.09863281,0.9770508,-3.29771,-0.05343511,-1.099237
-0.02050781,-0.09912109,0.9721681,-3.450382,0.2137404,-0.9847328
-0.02441406,-0.1005859,0.9750977,-3.381679,0.09923664,-1.198473
-0.01855469,-0.1020508,0.9760742,-3.312977,0.1679389,-0.9847328
-0.02099609,-0.09912109,0.980957,-3.442748,0.3053435,-1.114504
-0.01757812,-0.09082031,0.9721681,-3.351145,0.1221374,-0.870229
-0.01611328,-0.09814453,0.9770508,-3.526718,0.2900764,-0.8778625
-0.01757812,-0.09667969,0.9794922,-3.343511,0.2519084,-1.167939
-0.02441406,-0.09912109,0.9760742,-3.473282,0.3358779,-1.007634
-0.02636719,-0.09619141,0.9765625,-3.526718,0.1908397,-1.061069
-0.02050781,-0.1000977,0.9833984,-3.29771,0.1603054,-1.08397
-0.02050781,-0.09960938,0.980957,-3.305344,0.1755725,-1
-0.01757812,-0.09912109,0.9721681,-3.412214,0.2366412,-1.053435
-0.02246094,-0.1005859,0.9692383,-3.29771,0.04580153,-1.022901
-0.01806641,-0.1049805,0.9770508,-3.374046,0.3282443,-1.19084
-0.02832031,-0.1044922,0.965332,-3.374046,0.2748091,-1.015267
-0.02246094,-0.1015625,0.9785156,-3.59542,0.2137404,-1.198473
-0.02246094,-0.1040039,0.9799805,-3.541985,0.3740458,-1.183206
-0.02441406,-0.1020508,0.9750977,-3.29771,0.3816794,-1.045802
-0.02246094,-0.1000977,0.9824219,-3.458015,0.2748091,-1.152672
-0.02294922,-0.09912109,0.9633789,-3.419847,0.1908397,-1.08397
-0.02636719,-0.1030273,0.9667969,-3.549618,0.1450382,-0.8396947
-0.02636719,-0.1015625,0.9765625,-3.641221,0.1374046,-1.068702
-0.02099609,-0.09570313,0.9677734,-3.564886,0.3206107,-1.076336
-0.02148438,-0.09765625,0.9790039,-3.259542,0.1145038,-1.068702
-0.02783203,-0.1020508,0.9760742,-3.450382,0.2671756,-0.832061
-0.02050781,-0.09863281,0.9736328,-3.358779,0.2748091,-1.114504
-0.02001953,-0.1030273,0.9873047,-3.526718,0.1068702,-0.9389313
-0.02441406,-0.1025391,0.9697266,-3.40458,0.1526718,-1.129771
-0.02050781,-0.1020508,0.9780273,-3.48855,0.3129771,-0.8778625
-0.02392578,-0.1010742,0.9785156,-3.427481,0.2290076,-1.167939
-0.03027344,-0.1005859,0.9790039,-3.458015,0.3740458,-0.961832
-0.02392578,-0.09667969,0.9697266,-3.320611,0.3435115,-1.030534
-0.02050781,-0.105957,0.9804688,-3.389313,0.4732824,-1.175573
-0.02929688,-0.1025391,0.9726563,-3.381679,0.1832061,-0.9847328
-0.02099609,-0.1054688,0.9716797,-3.259542,0.1679389,-1.030534
-0.02587891,-0.1064453,0.9760742,-3.312977,0.4045802,-1.122137
-0.02441406,-0.1000977,0.9780273,-3.465649,0.2519084,-0.8854962
-0.02734375,-0.1054688,0.9750977,-3.381679,0.1526718,-1
-0.02001953,-0.1064453,0.9628906,-3.061069,0.2900764,-1.152672
-0.02001953,-0.1079102,0.9672852,-3.450382,0.4045802,-0.9160305
-0.02734375,-0.1044922,0.9682617,-3.351145,-0.007633588,-1.091603
-0.02294922,-0.1035156,0.9765625,-3.625954,0.2213741,-1.099237
-0.02929688,-0.1054688,0.9824219,-3.526718,0.1526718,-1.08397
-0.02392578,-0.09863281,0.9736328,-3.366412,0.2290076,-1.122137
-0.03027344,-0.1005859,0.9731445,-3.305344,0.1832061,-0.9160305
-0.02587891,-0.1020508,0.9736328,-3.374046,0.1374046,-1.175573
-0.02832031,-0.1035156,0.9702148,-3.312977,0.09160305,-1.076336
-0.02441406,-0.1035156,0.9799805,-3.351145,0.4122138,-0.9541985
-0.02978516,-0.1025391,0.9819336,-3.580153,0.07633588,-1.221374
-0.02832031,-0.1035156,0.9755859,-3.10687,0.2748091,-1.038168
-0.02636719,-0.1040039,0.9721681,-3.175573,0.4045802,-0.9083969
-0.02832031,-0.1000977,0.9731445,-3.366412,0.2061069,-0.9694656
-0.02636719,-0.1069336,0.9672852,-3.458015,0.1832061,-0.9465649
-0.02783203,-0.1015625,0.9785156,-3.534351,0.1679389,-0.9083969
-0.03417969,-0.1040039,0.9785156,-3.648855,0.1603054,-1
-0.02197266,-0.1015625,0.9736328,-3.381679,0.1526718,-1.076336
-0.02685547,-0.1083984,0.9731445,-3.175573,0.3358779,-1.061069
-0.02636719,-0.1040039,0.9697266,-3.320611,0.1450382,-1.099237
-0.02734375,-0.1035156,0.9731445,-3.465649,0.2671756,-0.9923665
-0.02832031,-0.1030273,0.9770508,-3.381679,0.3053435,-1.145038
-0.02490234,-0.1030273,0.9770508,-3.29771,0.2061069,-1.038168
-0.0234375,-0.1044922,0.9799805,-3.465649,-0.03816794,-1.145038
-0.03027344,-0.1083984,0.9775391,-3.175573,0.2671756,-1.244275
-0.02734375,-0.1079102,0.9858398,-3.221374,0,-0.9160305
-0.02392578,-0.105957,0.9770508,-3.381679,0.1603054,-1.091603
-0.02832031,-0.1040039,0.9731445,-3.312977,0.3358779,-1.114504
-0.02636719,-0.09912109,0.9692383,-3.450382,0.3435115,-1.236641
-0.02929688,-0.1000977,0.9721681,-3.427481,0.1374046,-0.961832
-0.03076172,-0.1074219,0.9716797,-3.51145,0.04580153,-1
-0.02783203,-0.1005859,0.9765625,-3.206107,0.1755725,-1.007634
-0.02490234,-0.1015625,0.9726563,-3.312977,0.03816794,-1.114504
-0.03173828,-0.1054688,0.9677734,-3.381679,0.1068702,-0.9007633
-0.02539062,-0.1015625,0.9702148,-3.412214,0.2442748,-1.129771
-0.03271484,-0.1069336,0.9702148,-3.236641,0.1450382,-1.076336
-0.02441406,-0.1044922,0.9755859,-3.389313,0.2671756,-1.08397
-0.02148438,-0.1083984,0.9731445,-3.29771,0.2137404,-0.8931297
-0.02783203,-0.1079102,0.9770508,-3.648855,0.2977099,-1.022901
-0.02685547,-0.105957,0.9721681,-3.419847,0.2290076,-1.068702
-0.02539062,-0.109375,0.9848633,-3.290076,0.2671756,-1.198473
-0.02929688,-0.1040039,0.9702148,-3.412214,0.1374046,-1.137405
-0.02880859,-0.1054688,0.9711914,-3.496183,0.3435115,-1.08397
-0.03320313,-0.1020508,0.9697266,-3.450382,0.1755725,-1.045802
-0.02783203,-0.1098633,0.9746093,-3.458015,0.2900764,-0.8931297
-0.03271484,-0.1083984,0.9677734,-3.198473,0.2213741,-1.137405
-0.02978516,-0.1083984,0.9702148,-3.473282,0.1374046,-1.091603
-0.02685547,-0.1010742,0.9726563,-3.343511,0.3206107,-1.137405
-0.03173828,-0.1054688,0.9677734,-3.29771,0.1832061,-1.167939
-0.03222656,-0.1142578,0.9711914,-3.320611,0.1984733,-0.8854962
-0.03808594,-0.1064453,0.9731445,-3.473282,-0.06870229,-1.007634
-0.03173828,-0.1044922,0.9746093,-3.351145,0.09160305,-1.152672
-0.02880859,-0.1054688,0.9667969,-3.282443,0.2213741,-0.9847328
-0.02929688,-0.1098633,0.9711914,-3.496183,0.3587786,-1.122137
-0.03173828,-0.1064453,0.9638672,-3.274809,0.2290076,-1.114504
-0.03417969,-0.1083984,0.9755859,-3.557252,0.2671756,-0.9923665
-0.03027344,-0.1054688,0.9760742,-3.335878,0.3053435,-1.08397
-0.03173828,-0.1040039,0.9609375,-3.282443,0.2977099,-1.076336
-0.03320313,-0.1088867,0.9746093,-3.442748,0.1984733,-1.030534
-0.02929688,-0.1054688,0.9765625,-3.259542,0.03053435,-1.099237
-0.02783203,-0.1054688,0.9760742,-3.496183,0.07633588,-1.198473
-0.03466797,-0.105957,0.9755859,-3.366412,-0.06870229,-1.099237
-0.03076172,-0.105957,0.9663086,-3.274809,0.1755725,-1
-0.02978516,-0.1108398,0.9780273,-3.274809,0.1755725,-1.038168
-0.03271484,-0.105957,0.9760742,-3.396947,0.1755725,-0.9236641
-0.03027344,-0.1015625,0.9677734,-3.40458,0.2900764,-1.022901
-0.03125,-0.1015625,0.9731445,-3.435114,0.007633588,-1.183206
-0.03369141,-0.1049805,0.9741211,-3.366412,0.2061069,-0.9923665
-0.03125,-0.1088867,0.9707031,-3.618321,0.4656488,-0.9465649
-0.03222656,-0.1088867,0.9721681,-3.160305,0.2137404,-1.007634
-0.03613281,-0.1064453,0.9633789,-3.160305,0.1984733,-0.9389313
-0.03417969,-0.1123047,0.9633789,-3.396947,0.1374046,-1.175573
-0.03125,-0.1103516,0.9770508,-3.419847,0.2290076,-1.167939
-0.03173828,-0.1049805,0.9731445,-3.442748,0.2061069,-1.206107
-0.03613281,-0.1015625,0.9692383,-3.427481,0.1374046,-1.137405
-0.03173828,-0.1000977,0.9667969,-3.465649,0.3282443,-1.152672
-0.03369141,-0.1035156,0.9682617,-3.496183,0.1679389,-1.122137
-0.03515625,-0.1064453,0.9741211,-3.328244,0.09923664,-1.08397
-0.03027344,-0.1035156,0.9716797,-3.282443,0.259542,-1.022901
-0.03125,-0.1049805,0.9721681,-3.29771,0.1984733,-0.961832
-0.03222656,-0.1079102,0.9697266,-3.358779,0.1068702,-1.08397
-0.03125,-0.1088867,0.9750977,-3.427481,0.1679389,-0.9312977
-0.03222656,-0.1123047,0.9765625,-3.312977,0.2671756,-1.015267
-0.03271484,-0.1088867,0.9721681,-3.343511,0.05343511,-1.030534
-0.03564453,-0.1137695,0.9736328,-3.465649,0.08396947,-1.175573
-0.02929688,-0.1069336,0.9741211,-3.312977,0.2290076,-1.053435
-0.02490234,-0.1098633,0.9814453,-3.427481,0.2519084,-1.145038
-0.03271484,-0.112793,0.9736328,-3.412214,0.259542,-1.236641
-0.03417969,-0.1103516,0.9731445,-3.274809,0.0610687,-1.099237
-0.02978516,-0.1137695,0.9726563,-3.48855,0.2366412,-1.091603
-0.02636719,-0.1118164,0.9731445,-3.343511,0.2290076,-1.045802
-0.03613281,-0.1064453,0.9765625,-3.412214,0.2824428,-0.9923665
-0.03369141,-0.1088867,0.9731445,-3.21374,-0.02290076,-1.038168
-0.03271484,-0.1152344,0.9716797,-3.51145,0.351145,-1.152672
-0.02880859,-0.1098633,0.9697266,-3.259542,0.2748091,-0.9236641
-0.03466797,-0.1118164,0.9755859,-3.496183,0.1145038,-1.221374
-0.03271484,-0.1083984,0.9716797,-3.503817,0.05343511,-1.137405
-0.03808594,-0.1103516,0.9682617,-3.282443,-0.0610687,-1.08397
-0.03466797,-0.105957,0.96875,-3.290076,0.389313,-1.007634
-0.03466797,-0.1054688,0.9643555,-3.541985,0.1221374,-1.022901
-0.03173828,-0.1118164,0.9775391,-3.435114,0.4351145,-1.045802
-0.03369141,-0.1113281,0.9726563,-3.419847,0.09923664,-1.007634
-0.03222656,-0.105957,0.9750977,-3.473282,0.259542,-1.08397
-0.02978516,-0.1074219,0.96875,-3.328244,0.2977099,-1.145038
-0.04003906,-0.1088867,0.9707031,-3.442748,0.1832061,-0.9770992
-0.04052734,-0.109375,0.9663086,-3.328244,0.08396947,-1.145038
-0.03710938,-0.1108398,0.9677734,-3.129771,0.2061069,-0.9923665
-0.03759766,-0.1098633,0.9770508,-3.152672,0.1755725,-1
-0.03369141,-0.1074219,0.9692383,-3.473282,0.02290076,-1.114504
-0.03857422,-0.1162109,0.9760742,-3.343511,0.07633588,-1.167939
-0.03808594,-0.1108398,0.9707031,-3.305344,0.3435115,-1.08397
-0.03710938,-0.1069336,0.9716797,-3.427481,0.3358779,-1.114504
-0.03710938,-0.1098633,0.9697266,-3.534351,0.1221374,-1.038168
-0.04150391,-0.1049805,0.9677734,-3.274809,0.03053435,-1.282443
-0.03369141,-0.1064453,0.9609375,-3.396947,0.3358779,-1.068702
-0.03271484,-0.1132813,0.9624023,-3.419847,0.1679389,-1.167939
-0.03271484,-0.1069336,0.9824219,-3.450382,0.3053435,-1.045802
-0.04003906,-0.1137695,0.9726563,-3.40458,0.2137404,-1.030534
-0.03173828,-0.1054688,0.9721681,-3.229008,0.04580153,-1.137405
-0.03320313,-0.1054688,0.9721681,-3.496183,0.1984733,-1
-0.02978516,-0.1113281,0.9707031,-3.541985,0.2137404,-1.076336
-0.03662109,-0.1137695,0.965332,-3.274809,0.1984733,-1.08397
-0.03857422,-0.1098633,0.9731445,-3.21374,0.09160305,-1.068702
-0.03466797,-0.1103516,0.9726563,-3.465649,0.0610687,-1.007634
-0.03417969,-0.1118164,0.980957,-3.267176,0.259542,-1.045802
-0.03222656,-0.1118164,0.9775391,-3.541985,0.1450382,-0.9160305
-0.03662109,-0.1098633,0.9628906,-3.450382,0.3587786,-1.099237
-0.03222656,-0.1137695,0.9736328,-3.351145,0.1832061,-1.114504
-0.03710938,-0.1166992,0.9765625,-3.236641,0.2900764,-1.229008
-0.03222656,-0.1098633,0.96875,-3.557252,0.2290076,-0.9770992
-0.04199219,-0.1103516,0.9711914,-3.305344,0.2442748,-0.8549618
-0.03564453,-0.1103516,0.9726563,-3.366412,0.2824428,-1.152672
-0.03173828,-0.1176758,0.9677734,-3.206107,0.4427481,-1.045802
-0.03955078,-0.1166992,0.9667969,-3.396947,0.129771,-1.160305
-0.02929688,-0.1098633,0.9707031,-3.427481,0.09923664,-1.068702
-0.03613281,-0.1176758,0.9736328,-3.389313,0.1450382,-0.9083969
-0.03173828,-0.1054688,0.9716797,-3.282443,0.3435115,-1.137405
-0.0390625,-0.1196289,0.9707031,-3.366412,0.3206107,-1.099237
-0.03320313,-0.1044922,0.9750977,-3.473282,0.1832061,-1.076336
-0.03710938,-0.1108398,0.9731445,-3.312977,0.3206107,-1.068702
-0.03613281,-0.1113281,0.9716797,-3.320611,0.1145038,-1.167939
-0.03759766,-0.1147461,0.9658203,-3.40458,0.3206107,-1.007634
-0.03173828,-0.1083984,0.9736328,-3.229008,0.4198473,-1
-0.0390625,-0.1108398,0.9741211,-3.160305,0.519084,-1.137405
-0.03076172,-0.1142578,0.9619141,-3.503817,0.1984733,-0.9923665
-0.03515625,-0.1079102,0.9741211,-3.312977,0.4274809,-0.9465649
-0.04003906,-0.1123047,0.9770508,-3.335878,0.1526718,-1.229008
-0.03564453,-0.1123047,0.9677734,-3.435114,0.2671756,-0.9236641
-0.03466797,-0.1132813,0.9633789,-3.381679,0.08396947,-1.045802
-0.0390625,-0.1088867,0.9819336,-3.328244,-0.01526718,-0.8167939
-0.04101563,-0.1079102,0.9741211,-3.290076,0.1374046,-0.9770992
-0.04052734,-0.1118164,0.9736328,-3.473282,0.3129771,-0.9694656
-0.03857422,-0.1098633,0.9790039,-3.427481,0.3435115,-1.259542
-0.04248047,-0.1108398,0.9711914,-3.305344,0.2977099,-1.206107
-0.04101563,-0.1098633,0.9692383,-3.305344,0.3053435,-1.175573
-0.03808594,-0.1137695,0.9726563,-3.48855,0.09160305,-1.068702
-0.03710938,-0.1118164,0.9667969,-3.320611,0.09923664,-1.114504
-0.03613281,-0.1083984,0.9785156,-3.290076,0.0610687,-1.10687
-0.03613281,-0.1123047,0.9702148,-3.618321,0.01526718,-1.061069
-0.0390625,-0.1137695,0.9658203,-3.366412,0.1832061,-1.053435
-0.03320313,-0.1171875,0.9731445,-3.40458,0.389313,-1.015267
-0.03662109,-0.1079102,0.9721681,-3.29771,0.3053435,-1.198473
-0.03027344,-0.1181641,0.9638672,-3.167939,0.2290076,-1.08397
-0.04296875,-0.1157227,0.9711914,-3.427481,0.2366412,-1.114504
-0.03662109,-0.1147461,0.9750977,-3.419847,0.129771,-1.045802
-0.03759766,-0.1147461,0.9711914,-3.328244,0.351145,-1.091603
-0.03417969,-0.1152344,0.9819336,-3.274809,0.2061069,-1.08397
-0.03222656,-0.1162109,0.9731445,-3.412214,0.2366412,-1.236641
-0.03808594,-0.1186523,0.9707031,-3.541985,0.2442748,-1.038168
-0.04150391,-0.1162109,0.9667969,-3.419847,0.1068702,-0.9847328
-0.03710938,-0.1132813,0.9790039,-3.251908,0.2290076,-1.282443
-0.04248047,-0.1186523,0.9731445,-3.160305,0.2442748,-1.099237
-0.03417969,-0.1113281,0.9760742,-3.442748,0.05343511,-1
-0.03710938,-0.1103516,0.9741211,-3.320611,0.1526718,-1.091603
-0.03564453,-0.1171875,0.9750977,-3.450382,0.1755725,-1.183206
-0.03515625,-0.1142578,0.965332,-3.534351,0.1755725,-1.145038
-0.03515625,-0.1123047,0.9721681,-3.549618,0.2061069,-1.122137
-0.03955078,-0.1118164,0.9643555,-3.312977,0.129771,-1.030534
-0.04101563,-0.1157227,0.9741211,-3.351145,0.2213741,-1.061069
-0.03808594,-0.1064453,0.9731445,-3.290076,0.1526718,-1.129771
-0.0390625,-0.1118164,0.9697266,-3.412214,0.07633588,-1.068702
-0.03613281,-0.1108398,0.9677734,-3.381679,0.1526718,-1.10687
-0.03759766,-0.1157227,0.9794922,-3.29771,0.2824428,-1.08397
-0.04003906,-0.1162109,0.9667969,-3.396947,-0.01526718,-1.007634
-0.04003906,-0.1108398,0.9775391,-3.351145,0.02290076,-1.076336
-0.04003906,-0.109375,0.9648438,-3.236641,0.1984733,-1.19084
-0.04003906,-0.1142578,0.9707031,-3.381679,0.04580153,-1.19084
-0.03564453,-0.1201172,0.9677734,-3.389313,0.2748091,-1.183206
-0.0390625,-0.1147461,0.9711914,-3.396947,0.1603054,-1.061069
-0.04052734,-0.1142578,0.9780273,-3.442748,0.09160305,-1.206107
-0.0390625,-0.1162109,0.9697266,-3.503817,0.3740458,-1.145038
-0.03955078,-0.1108398,0.96875,-3.442748,0.1374046,-0.9312977
-0.03955078,-0.112793,0.9741211,-3.290076,0.3587786,-1.19084
-0.03759766,-0.112793,0.9794922,-3.465649,0.1145038,-1.068702
-0.04150391,-0.1157227,0.9584961,-3.290076,0.1526718,-0.9160305
-0.04199219,-0.1113281,0.9770508,-3.51145,0.129771,-1.206107
-0.0390625,-0.112793,0.9711914,-3.610687,0.3206107,-1.015267
-0.03613281,-0.1088867,0.9755859,-3.152672,0.1603054,-1.030534
-0.04296875,-0.1088867,0.9697266,-3.152672,0.1679389,-1.122137
-0.03466797,-0.1142578,0.96875,-3.198473,0.1603054,-1.122137
-0.04052734,-0.1142578,0.9731445,-3.480916,0.2824428,-1.099237
-0.04150391,-0.1166992,0.9707031,-3.480916,0.3740458,-1.167939
-0.04248047,-0.1098633,0.965332,-3.366412,0.1908397,-1.167939
-0.03808594,-0.1162109,0.9672852,-3.51145,0.2977099,-0.961832
-0.04003906,-0.1162109,0.9692383,-3.335878,0.2671756,-1.122137
-0.04101563,-0.1103516,0.9794922,-3.312977,0.1755725,-1.068702
-0.03955078,-0.1201172,0.9716797,-3.389313,0.3587786,-0.8931297
-0.03808594,-0.1166992,0.9785156,-3.687023,0.08396947,-1.08397
-0.04638672,-0.1098633,0.9721681,-3.549618,0.4351145,-1.007634
-0.03808594,-0.1147461,0.9711914,-3.351145,0.3129771,-1.038168
-0.03222656,-0.1201172,0.9648438,-3.458015,0.1450382,-1.030534
-0.04248047,-0.112793,0.9711914,-3.29771,0.2290076,-1.007634
-0.04296875,-0.1142578,0.9741211,-3.290076,0.2442748,-1.068702
-0.03955078,-0.1157227,0.9726563,-3.396947,-0.1068702,-1.137405
-0.03466797,-0.1166992,0.9775391,-3.244275,0.519084,-1.007634
-0.03857422,-0.1132813,0.9677734,-3.572519,0.2519084,-1.19084
-0.04101563,-0.1147461,0.9736328,-3.320611,0.1755725,-1.061069
-0.04443359,-0.1098633,0.9785156,-3.351145,0.1068702,-1.068702
-0.04150391,-0.1176758,0.9638672,-3.412214,0.2061069,-0.8778625
-0.03564453,-0.1108398,0.9760742,-3.328244,-0.007633588,-1.061069
-0.04541016,-0.1157227,0.9682617,-3.412214,0.1832061,-0.9770992
-0.04296875,-0.1147461,0.9702148,-3.305344,0.3435115,-0.9083969
-0.03662109,-0.1152344,0.9721681,-3.29771,0.2442748,-1.198473
-0.03955078,-0.1152344,0.9682617,-3.541985,0.3129771,-1.030534
-0.04003906,-0.1147461,0.9682617,-3.40458,0.2519084,-1.152672
-0.03710938,-0.1152344,0.965332,-3.290076,0.1221374,-1.267176
-0.0390625,-0.1157227,0.9672852,-3.229008,0.3740458,-1.099237
-0.03515625,-0.1162109,0.9736328,-3.267176,0.2137404,-1.068702
-0.04003906,-0.1147461,0.9770508,-3.267176,0.09160305,-1.022901
-0.04003906,-0.1162109,0.9682617,-3.564886,0.2824428,-1.08397
-0.03955078,-0.1132813,0.9741211,-3.160305,0.4122138,-1.076336
-0.03857422,-0.1132813,0.980957,-3.59542,0.2061069,-1.221374
-0.0390625,-0.1152344,0.9716797,-3.442748,0.2977099,-1.099237
-0.04345703,-0.1113281,0.9775391,-3.305344,0.09160305,-1.152672
-0.04296875,-0.112793,0.9663086,-3.458015,0.2137404,-1.08397
-0.04394531,-0.1186523,0.9643555,-3.381679,0.3435115,-1.259542
-0.03759766,-0.1166992,0.9682617,-3.419847,0.2442748,-1.122137
-0.03466797,-0.1142578,0.9702148,-3.419847,0.1755725,-1.076336
-0.04443359,-0.1152344,0.9702148,-3.305344,0.02290076,-1.068702
-0.04003906,-0.1166992,0.9707031,-3.389313,0.09923664,-1.206107
-0.03564453,-0.1166992,0.9677734,-3.48855,0.1374046,-1.099237
-0.04101563,-0.1118164,0.9726563,-3.251908,0.2442748,-1.038168
-0.0390625,-0.1176758,0.9677734,-3.419847,0.1450382,-0.9847328
-0.04492188,-0.1147461,0.9741211,-3.145038,0.1221374,-1.099237
-0.0390625,-0.1137695,0.9726563,-3.244275,0.2442748,-1.152672
-0.04150391,-0.1142578,0.9702148,-3.450382,0.2213741,-0.9160305
-0.04248047,-0.1137695,0.9697266,-3.641221,0.2519084,-0.961832
-0.04345703,-0.1152344,0.9746093,-3.526718,0.04580153,-1.21374
-0.04150391,-0.1171875,0.9702148,-3.259542,0.1374046,-1.145038
-0.04589844,-0.1132813,0.9648438,-3.442748,-0.08396947,-0.961832
-0.04443359,-0.1142578,0.9741211,-3.557252,0.2442748,-1.053435
-0.04052734,-0.1166992,0.9692383,-3.343511,0.3435115,-1.038168
-0.046875,-0.1147461,0.9741211,-3.251908,0.1450382,-1.022901
-0.04394531,-0.1201172,0.9643555,-3.427481,0.351145,-1.068702
-0.04492188,-0.1147461,0.9667969,-3.641221,0.4198473,-1
-0.04345703,-0.1147461,0.9702148,-3.603053,0.2290076,-0.9389313
-0.04785156,-0.1186523,0.9707031,-3.343511,0.1908397,-1.099237
-0.04101563,-0.112793,0.9760742,-3.374046,0.2290076,-0.9160305
-0.03125,-0.1157227,0.9716797,-3.282443,0.1221374,-1.045802
-0.04980469,-0.1137695,0.9697266,-3.396947,-0.007633588,-0.9312977
-0.04589844,-0.1191406,0.9677734,-3.290076,0.1755725,-1.08397
-0.04150391,-0.1206055,0.9770508,-3.251908,0.1908397,-1.08397
-0.04248047,-0.1152344,0.9873047,-3.152672,0.129771,-1.137405
-0.04541016,-0.1191406,0.9755859,-3.480916,0.1145038,-1.183206
-0.04199219,-0.1108398,0.9663086,-3.51145,0.04580153,-1
-0.04394531,-0.1166992,0.96875,-3.519084,0.2519084,-1.045802
-0.03955078,-0.1162109,0.9648438,-3.358779,0.2061069,-1.045802
-0.04199219,-0.1123047,0.9750977,-3.221374,0.3816794,-1.122137
-0.04248047,-0.1147461,0.9702148,-3.328244,0.3664122,-1.152672
-0.04736328,-0.1171875,0.9721681,-3.167939,0.07633588,-1.007634
-0.03808594,-0.1235352,0.9707031,-3.396947,0.1374046,-1.236641
-0.04345703,-0.1181641,0.9770508,-3.442748,0.007633588,-1.137405
-0.04443359,-0.1118164,0.9677734,-3.503817,0.007633588,-1.152672
-0.04101563,-0.1162109,0.9677734,-3.480916,0.2137404,-1.030534
-0.03662109,-0.1230469,0.9658203,-3.473282,0.3664122,-1.091603
-0.0390625,-0.1123047,0.9716797,-3.389313,0.3282443,-1.08397
-0.03857422,-0.1196289,0.9711914,-3.396947,0.07633588,-1.061069
-0.0390625,-0.1113281,0.9775391,-3.282443,0.3435115,-1.022901
-0.04003906,-0.1147461,0.9741211,-3.358779,0.2748091,-1.167939
-0.04345703,-0.1196289,0.9790039,-3.549618,0.2137404,-0.9160305
-0.04345703,-0.1103516,0.96875,-3.335878,0.3664122,-1.145038
-0.04052734,-0.1181641,0.9731445,-3.351145,0.09923664,-1.053435
-0.03759766,-0.1152344,0.9702148,-3.328244,0.1526718,-1.091603
-0.04052734,-0.1152344,0.9760742,-3.473282,0.1679389,-1.221374
-0.04296875,-0.1123047,0.96875,-3.572519,0.129771,-1.061069
-0.03710938,-0.1186523,0.96875,-3.374046,-0.007633588,-0.9312977
-0.04785156,-0.1157227,0.9814453,-3.29771,0.09923664,-1.167939
-0.03662109,-0.1166992,0.9731445,-3.358779,0.1450382,-0.9541985
-0.04443359,-0.1162109,0.9667969,-3.290076,0.2442748,-1
-0.05078125,-0.1181641,0.9697266,-3.442748,0.1374046,-1.099237
-0.04101563,-0.1098633,0.9716797,-3.473282,0.2290076,-1
-0.04101563,-0.1210938,0.9731445,-3.40458,0.07633588,-0.9694656
-0.04150391,-0.1176758,0.9677734,-3.51145,0.09923664,-1
-0.04296875,-0.1206055,0.9780273,-3.351145,0.1908397,-1.022901
-0.04003906,-0.1210938,0.96875,-3.557252,0.3053435,-1.068702
-0.04296875,-0.1171875,0.9731445,-3.305344,0.1755725,-1.183206
-0.04394531,-0.121582,0.9614258,-3.557252,-0.1068702,-1.122137
-0.0390625,-0.1230469,0.9658203,-3.244275,0.2137404,-1.099237
-0.04492188,-0.1147461,0.9677734,-3.427481,0.0610687,-1.061069
-0.04248047,-0.1201172,0.9677734,-3.374046,0.129771,-1.022901
-0.04492188,-0.1137695,0.9702148,-3.145038,0.259542,-1.015267
-0.04736328,-0.1186523,0.965332,-3.458015,0.05343511,-1.114504
-0.03662109,-0.121582,0.9755859,-3.320611,0.2824428,-1.152672
-0.04736328,-0.1191406,0.9692383,-3.358779,0.4503817,-1.145038
-0.04248047,-0.1201172,0.9746093,-3.259542,-0.0610687,-1.045802
-0.04150391,-0.112793,0.9711914,-3.526718,0.2671756,-1.145038
-0.04003906,-0.1157227,0.9707031,-3.374046,0.05343511,-1.137405
-0.04638672,-0.1191406,0.965332,-3.343511,0.1908397,-0.9923665
-0.04492188,-0.1147461,0.96875,-3.366412,0.1526718,-0.9312977
-0.04345703,-0.1210938,0.9711914,-3.389313,0.2061069,-1.030534
-0.0390625,-0.1201172,0.9731445,-3.274809,0.2671756,-1.137405
-0.04345703,-0.1162109,0.9770508,-3.274809,0.2977099,-1.053435
-0.04345703,-0.1157227,0.9731445,-3.251908,0.2824428,-1.053435
-0.04150391,-0.1166992,0.9726563,-3.343511,0.2213741,-1.29771
-0.04248047,-0.1166992,0.9643555,-3.21374,-0.03816794,-1
-0.04443359,-0.1191406,0.9692383,-3.175573,0.1374046,-1.099237
-0.04150391,-0.1166992,0.9750977,-3.442748,0.3053435,-1.114504
-0.04443359,-0.1191406,0.9741211,-3.335878,0.2824428,-1.053435
-0.04492188,-0.1225586,0.9755859,-3.396947,0.1984733,-1.015267
-0.04443359,-0.121582,0.9863281,-3.381679,0.4045802,-1.259542
-0.04345703,-0.1162109,0.96875,-3.343511,0.05343511,-1.198473
-0.04931641,-0.1210938,0.9702148,-3.236641,0.2824428,-1.068702
-0.04199219,-0.1147461,0.9736328,-3.427481,0.03816794,-0.8931297
-0.04443359,-0.1108398,0.9716797,-3.396947,0.2366412,-1.251908
-0.0390625,-0.1181641,0.9638672,-3.244275,0.1145038,-1.145038
-0.04199219,-0.1196289,0.9677734,-3.091603,0.1526718,-1.129771
-0.04833984,-0.1210938,0.9790039,-3.290076,0.1603054,-1.08397
-0.04199219,-0.1210938,0.9741211,-3.320611,0.2671756,-1.022901
-0.04638672,-0.1176758,0.9672852,-3.21374,0.3587786,-1.129771
-0.04980469,-0.1171875,0.9711914,-3.389313,0.2290076,-1.167939
-0.04101563,-0.1191406,0.9736328,-3.282443,0.1984733,-1.068702
-0.04443359,-0.1147461,0.9780273,-3.19084,0.259542,-0.9083969
-0.04248047,-0.1166992,0.9741211,-3.244275,0.3282443,-1.068702
-0.04394531,-0.1225586,0.9780273,-3.282443,0.1374046,-1.221374
-0.04931641,-0.1191406,0.9633789,-3.358779,0.04580153,-1.068702
-0.03808594,-0.1196289,0.9819336,-3.458015,0.1526718,-1.038168
-0.04443359,-0.1210938,0.9711914,-3.389313,0.3129771,-1.145038
-0.04101563,-0.1186523,0.9770508,-3.236641,0.2137404,-1.160305
-0.04589844,-0.1162109,0.9765625,-3.290076,0.2213741,-1.076336
-0.05273438,-0.1201172,0.9736328,-3.21374,0.129771,-1.053435
-0.04296875,-0.1162109,0.9643555,-3.40458,0.02290076,-1.08397
-0.04003906,-0.1201172,0.9721681,-3.412214,0.2137404,-0.9541985
-0.03955078,-0.1230469,0.9648438,-3.343511,0.3282443,-1.114504
-0.04589844,-0.1171875,0.965332,-3.389313,0.3129771,-1.022901
-0.05029297,-0.1220703,0.9716797,-3.389313,0.1221374,-1.122137
-0.04443359,-0.1171875,0.9750977,-3.328244,0.1984733,-1.091603
-0.046875,-0.1162109,0.9711914,-3.21374,0.04580153,-1.244275
-0.04003906,-0.1181641,0.9804688,-3.366412,0.02290076,-1.152672
-0.04296875,-0.1181641,0.9663086,-3.244275,0.1755725,-1.206107
-0.046875,-0.1118164,0.9765625,-3.328244,0.1984733,-0.9389313
-0.04248047,-0.1191406,0.9667969,-3.541985,-0.03053435,-0.961832
-0.04443359,-0.1157227,0.9648438,-3.442748,0.5114504,-1.015267
-0.046875,-0.1152344,0.9716797,-3.083969,0.2442748,-1.206107
-0.04296875,-0.1147461,0.9755859,-3.419847,0.1603054,-1.229008
-0.04248047,-0.1162109,0.9785156,-3.381679,0.1984733,-1.061069
-0.04541016,-0.1191406,0.9794922,-3.290076,0.0610687,-1.045802
-0.04443359,-0.1191406,0.9628906,-3.412214,0.1755725,-1.167939
-0.04199219,-0.1210938,0.9692383,-3.389313,0.3816794,-1.053435
-0.04541016,-0.112793,0.9667969,-3.320611,0.2519084,-1.053435
-0.04443359,-0.1181641,0.9755859,-3.335878,0.2519084,-1.068702
-0.04541016,-0.121582,0.9697266,-3.366412,0.1679389,-1.007634
-0.04541016,-0.1186523,0.9667969,-3.389313,0.1450382,-1.244275
-0.04785156,-0.1186523,0.9760742,-3.328244,0.007633588,-1.068702
-0.04833984,-0.1181641,0.9663086,-3.419847,0.2824428,-0.9847328
-0.04736328,-0.1181641,0.9677734,-3.396947,0.1984733,-1.145038
-0.04345703,-0.1132813,0.9755859,-3.381679,0.3969466,-1.175573
-0.04199219,-0.1196289,0.9643555,-3.305344,0.1221374,-1.099237
-0.04199219,-0.1240234,0.9760742,-3.450382,0.2900764,-0.9236641
-0.04394531,-0.1162109,0.9770508,-3.328244,0.03053435,-1.007634
-0.04638672,-0.1210938,0.9736328,-3.290076,0.129771,-1.022901
-0.01416016,-0.1381836,0.9125977,-0.2061069,-1.389313,0.4198473
-0.1342773,-0.1420898,0.9331055,-2.328244,-7.755725,-2.496183
-0.2011719,-0.1191406,1.23584,-5.465649,10.99237,13.45802
0.1113281,-0.378418,0.9990234,-4.801527,25.0916,49.49618
-0.1835938,-0.1010742,0.7719727,2.801527,-65.98473,111.5038
-0.08740234,-0.05419922,1.095703,3.091603,-65.229,31.19084
0.3945313,-0.01367188,0.8144531,6.709924,1.725191,6.656488
0.09960938,0.1953125,1.231934,9.053435,85.76336,-34.51145
0.06494141,-0.02050781,0.8769531,-4.374046,-6.076336,-0.04580153
0.04589844,-0.03320313,0.9936523,-3.320611,0,-0.9541985
-0.01416016,0.008789062,1.032227,-5.977099,-0.129771,-2.206107
-0.07226563,-0.1201172,1.060059,-20.10687,-15.8855,-5.89313
-0.07275391,0.01513672,1.077637,11.78626,23.41221,-30.70229
-0.1259766,-0.1777344,0.993164,-68.48092,77.32061,-43.46565
-0.01123047,-0.6918945,0.6342773,-46.55725,122.2443,-89.54962
-0.1357422,-0.8505859,0.3295898,-22.29771,40.43512,-19.8626
-0.000976562,-0.6147461,0.3974609,50.25954,-90.39695,93.35878
-0.1547852,-0.1879883,1.053711,32.26717,-69.89313,58.25954
0.1518555,-0.06738281,1.056641,31.16031,-58.8855,24.49618
0.07421875,0.08593751,1.168457,-88.39695,41.82443,-52.16794
0.06689453,-0.1264648,0.7856445,-53.9084,90.84733,-121.1374
0.06738281,-0.5410156,0.6542969,-75.20611,25.89313,-121.6336
0.4614258,-0.953125,0.4677734,-13.14504,47.14504,-17.07634
0.07470703,-0.5708008,0.6035156,27.49618,-7.076336,169.1908
-0.2231445,0.1298828,0.9736328,18.39695,-103.5267,211.7252
-0.449707,0.4111328,1.210449,-9.946565,-32.1145,29.0229
-0.005371094,-0.000488281,0.8579102,-56.55725,81.37405,-122.4885
0.07373047,-0.4628906,0.6435547,-21.9084,120.3817,-134.8397
-0.09716797,-0.7880859,0.6806641,48.54962,23.28244,-15.8626
-0.2314453,-0.737793,0.8095703,-35.82443,4.671756,46.13741
-0.171875,-0.125,0.5332031,-29.07634,-50.34351,140.4886
-0.4873046,0.2661133,1.076172,-3.931298,-99.50381,145.3053
-0.3720703,0.2519531,1.288574,-49.58779,-12.12977,-50.51145
-0.1943359,-0.05810547,0.8828125,-40.70229,54.70992,-89.16794
-0.0234375,-0.3876953,0.6835938,27.77863,10.31298,-61.99237
0.07910156,-0.7109375,0.9790039,41.83969,6.954198,-32.48855
0.07226563,-0.2973633,0.8828125,8.290076,-13.41985,101.8015
0.01464844,0.1938477,0.9721681,19.07634,-25.01527,135.6183
-0.02685547,0.3789063,1.068848,8.068703,-43.83206,78.9771
0.01269531,0.2978516,1.007324,-68.87786,31.91603,-110.5725
0.09814453,-0.0390625,0.918457,-17.14504,40.54198,-120.7786
0.1743164,-0.2021484,0.8076172,17.94656,-13.62595,84.65649
0.03076172,0.02978516,1.06543,20.41985,-52.9542,116.1603
-0.1513672,0.1933594,1.067871,-13.19084,-17.38931,46.29008
-0.0546875,0.06201172,1.09082,12.78626,34.33588,-43.68702
0.03613281,0.03710938,1.050781,-4.679389,33,-91.43511
-0.05224609,-0.1308594,1.008789,-8.374045,28.30534,-91.19084
0.1582031,-0.4428711,0.9145508,11.06107,-12.54198,5.572519
0.121582,-0.2607422,0.9316406,1.847328,-22.1145,81.65649
0.08789063,0.07519531,1.009766,22.34351,-28.16794,91.70229
-0.1914063,0.2978516,1.072266,-11.08397,-12.0687,12.16794
0.09228517,0.125,0.9873047,-4.763359,55.36641,-95.98473
0.02490234,-0.05664063,0.9887695,-18.96183,38.20611,-121.0687
0.1782227,-0.4946289,0.8676758,-16.35878,7.320611,-29.84733
0.1303711,-0.3134766,0.8623047,1.450382,-10.23664,77.14504
0.078125,-0.004882812,0.9213866,21.77099,-41.07634,125.3588
-0.2182617,0.1333008,1.142578,21.1145,-45.54198,74.72519
-0.152832,-0.02001953,1.089844,-16.61069,14.51145,-30.64886
0.0546875,-0.08837891,1.061035,-8.832061,45.04581,-70.58778
-0.01025391,-0.07324219,0.9736328,-22.21374,48.94656,-87.96947
0.08789063,-0.3139648,0.9179688,-24.99237,23.24427,-102.3588
0.07910156,-0.7294922,0.6914063,-58.51908,-6.305344,-9.236641
-0.08935547,-0.6674805,0.6914063,5.053435,-0.2442748,23.68702
-0.008300781,-0.5371094,0.6020508,0.01526718,-7.572519,27.0687
-0.1499023,-0.3276367,0.6157227,42.75573,-11.9313,46.60305
-0.1450195,-0.1313477,0.980957,50.67176,-35.87786,31.61832
-0.07763672,0.1186523,1.062012,39.03817,3.282443,45.80153
-0.1044922,0.1362305,1.071777,-29.42748,-4.694656,26.67175
0.05419922,0.06152344,0.9941406,2.557252,-16.72519,39.35115
-0.02441406,0.1567383,0.9506836,1.793893,-4.450382,-6.412214
-0.02246094,0.1293945,0.9912109,-9.038168,13.41221,-21.10687
-0.09814453,0.06152344,0.9936523,-29.83206,9.335877,-43.47328
-0.1635742,-0.1113281,0.965332,-55.90076,20.79389,-62.57252
-0.07421875,-0.3398438,0.8569336,-6.687023,25.86259,-46.70229
-0.005371094,-0.3598633,0.7641602,25.16794,3.496183,-45.21374
-0.04443359,-0.2910156,0.9482422,23.52672,-1.21374,-9.954199
-0.07861328,-0.1733398,0.9707031,10.83206,-4.564886,-14.83969
0.1899414,-0.2026367,0.9760742,-49.10687,-119.626,3.641221
0.6298828,-0.3745117,0.7583008,-0.09923664,-139.4962,11.08397
0.8388672,-0.3330078,0.4199219,7.122138,-85.43511,41.74046
0.925293,-0.3720703,-0.03027344,16.35878,-105.2901,-42.74809
0.868164,-0.2773438,-0.4785156,6.160306,-51.38168,-2.564886
0.6914063,-0.3164063,-0.7729492,2.885496,-56.43512,11.50382
0.5683594,-0.300293,-0.7753907,-7.51145,4.022901,-4.870229
0.8095703,-0.3227539,-0.6894531,-12.77099,30.80916,19.61069
0.6962891,-0.4047852,-0.4838867,-16.40458,-2.496183,9.122137
0.9091797,-0.4199219,-0.3383789,-20.98473,33.89313,9.061069
1.182129,-0.2319336,-0.3862305,-44.45802,210.9084,-29.58015
0.8823242,-0.07763672,0.3964844,21.09924,250.1298,-7.465649
0.0390625,0.02929688,1.081055,48.71756,162.8855,-0.7480916
-0.5263672,0.2641602,0.8491211,27.32825,67.20611,5.923664
-0.7612305,0.3574219,0.5415039,10.92366,51.19084,15.22137
-0.7983398,0.3833008,0.3286133,5.961832,33.22901,-13.09924
-0.8876953,0.3554688,0.1655273,-10.16031,7.038168,-6.793893
-0.8676758,0.3251953,0.1347656,-8.290076,-4.129771,-1.167939
-0.9130859,0.3261719,0.1518555,-13.54198,-9.335877,-1.496183
-0.8994141,0.2929688,0.2431641,-39.22901,-61.2061,-11.33588
-0.578125,0.2231445,0.9335938,-110.8015,-130.7328,21.18321
-0.175293,0.03125,1.130859,-64.19084,-160.5038,17.01527
0.6206055,-0.309082,0.6992188,-36.9542,-117.5802,32.8168
0.7685547,-0.3999023,0.4838867,-10.41985,-49.10687,5.671756
0.8828125,-0.5073242,0.3046875,-2.030534,-33.15267,6.290076
0.8359375,-0.4931641,0.3603516,-14.45038,-3.51145,12.12214
0.8149413,-0.3999023,0.3759766,11.53435,37.42748,-20.42748
0.7783203,-0.3222656,0.5703125,23.35114,78.229,-48.25954
0.4511719,-0.06542969,0.8515625,32.12977,77.91603,-31.92366
0.2685547,0.02099609,0.9072266,7.290076,44.29771,32.64885
-0.005859375,0.1386719,0.9946289,11.40458,-26.35114,28.14504
0.07177734,0.1376953,0.9536134,-4.320611,-16.48855,3.748092
0.1425781,0.09912109,0.9873047,-16.43511,1.076336,-21.76336
0.078125,0.03808594,1.008301,-19.42748,14.72519,-40.07634
0.04199219,-0.01269531,0.9277344,-9.068703,20.42748,-62.54198
0.02539062,-0.03027344,0.9257813,3.335878,3.587786,-40.70229
-0.02783203,-0.08398438,1.000488,-8.40458,3.534351,-26.63359
0.04394531,-0.2163086,1.004883,-12.31298,7.320611,-45.76336
-0.05419922,-0.2275391,1.023926,-12.0458,19.16794,-27.29008
-0.1855469,-0.125,0.9873047,-11.71756,17.47328,21.9542
-0.1977539,-0.1811523,0.9428711,-15.42748,2.793893,5.435114
-0.08789063,-0.2709961,0.8515625,-23.44275,-3.717557,20.87786
-0.07080078,-0.2836914,0.828125,7.80916,-15.56489,55.25954
-0.08642578,-0.07080078,0.8662109,30.05344,-16.32061,49.9771
-0.1435547,0.1235352,1.026367,30.51908,-21,52.44275
-0.002929688,0.1665039,1.018066,8,-34.58779,39.90076
0.190918,0.2543945,0.9077148,29.86259,-45.85496,15.28244
0.4667969,0.2646484,0.9804688,-24.22137,-32.23664,21.42748
0.4658203,0.1635742,0.9536134,-44.1832,23.07634,-36.46565
0.3027344,0.01220703,0.9223633,-57.66412,48.78626,-24.0916
0.1645508,-0.1518555,0.9047852,-38.58779,29.13741,-27.63359
0.05175781,-0.1923828,0.8950195,-14.54962,19.05343,-42.55725
0.06542969,-0.253418,1.009277,28.18321,11.19847,-36.17557
0.02490234,-0.2158203,1.095215,-10.03053,13.03817,-33.07634
-0.02880859,-0.3095703,1.03418,-40.15267,16.14504,-7.587786
-0.04052734,-0.2978516,0.7446289,-18.62595,-5.847328,41.61069
-0.07519531,-0.140625,0.8540039,30.46565,-22.17557,100.1145
-0.2348633,0.0234375,1.050781,13.32061,-20.51908,56.45038
-0.07568359,0.02099609,1.071777,-14.30534,-31.63359,30.18321
0.1708984,0.06103516,1.01416,-17.25954,-52.77099,15.87023
0.4741211,-0.1000977,0.8129883,-40.16794,-91.99236,1.793893
0.5571289,-0.2255859,0.6772461,-64.39695,-21.91603,15.61069
0.6811523,-0.3823242,0.671875,-0.8091603,41.44275,-36.67176
0.5068359,-0.4013672,0.7827148,12.23664,38.57252,-20.34351
0.4301758,-0.2514648,0.9521484,6.824428,68.62595,-56.35115
0.05957031,-0.1196289,1.033203,-7.221374,122.7099,-94.67939
0.05957031,-0.3066406,0.9487305,-17.16031,34.03053,-47.54198
-0.04492188,-0.2602539,0.9262695,-12.58779,-15.51908,56.92366
-0.1113281,-0.105957,0.9428711,13.08397,-37.0229,60.75573
-0.1347656,0.01904297,0.9389648,9.961832,-9.145039,68.41985
-0.1220703,0.08349609,1.04248,1.526718,-20.22137,49.0916
0.2368164,0.01123047,0.9604492,-15.12977,-61.70229,48.96183
0.3979492,0.03955078,0.9243164,-12.77099,-114.2977,0.9007633
0.8759766,-0.1176758,0.515625,-26.05344,-82.41222,12.31298
0.8349609,-0.1992188,0.5102539,-25.23664,20.0687,-16.64886
0.859375,-0.2177734,0.5234375,-32.12977,46.42748,-47.00763
0.7133789,-0.1132813,0.7421875,-27.06107,64.72519,-63.99237
0.527832,-0.09619141,0.8833008,-23.64886,62.62595,-45.99237
0.3662109,-0.159668,0.9194336,-39.94656,69.65649,-30.42748
0.1552734,-0.2368164,0.7958984,-34.26717,28.01527,25.15267
0.007324219,-0.1694336,0.8867187,19.96183,-42.84732,79.76336
0.02050781,-0.007324219,1.027832,26.80153,-39.28244,36.84733
0.4404297,0.06201172,0.8916016,22.77863,-81.62595,41.08397
0.5556641,-0.01074219,0.9360352,-30.89313,-85.12977,28.01527
0.6611328,-0.07910156,0.5913086,-84.01527,-42.95419,-18.63359
0.9243164,-0.2797852,0.315918,-37.82443,1.320611,-19.75573
0.9555664,-0.3217773,0.2109375,-41.25191,-47.17557,-6.694656
0.987793,-0.324707,0.1787109,-47.24427,54.64885,0.2137404
0.756836,-0.3164063,0.4589844,-73.83969,105.5573,1.679389
0.9609375,-0.4072266,0.6049805,-30.53435,164.2061,-90.92367
0.3442383,-0.3725586,0.8579102,-17.30534,94.70229,35.98473
-0.1098633,-0.2866211,0.8266602,-5.977099,30.45038,58.36641
-0.2734375,-0.2426758,0.8774414,2.664122,14.51145,85.00764
-0.3798828,-0.1074219,0.8515625,-17.45038,-16.03817,57.62595
-0.3671875,0.001953125,0.9311523,3.10687,-73.01527,45.37405
-0.05566406,-0.08544922,0.9267578,-17.49618,-28.82443,-0.9541985
0.2021484,-0.175293,0.9155273,0.3206107,-10.24428,39.32061
0.1323242,0.01123047,1.023438,10.69466,-36.89313,21.24427
0.1889648,0.05810547,0.9956055,9.40458,-4.473282,23.33588
0.2172852,0.1142578,0.9775391,-1.08397,-2.916031,8.526717
0.03466797,0.1474609,1.057129,-24.00763,52.19084,-74.89312
0.05175781,0.03466797,1.000977,-29.03053,25.33588,-88.12214
0.1879883,-0.2495117,0.9350587,-18.92366,16.33588,-51.03817
0.112793,-0.1933594,0.8925781,6.725191,-16.44275,83.0687
0.06103516,-0.004394531,1.030762,18.73282,-43.9771,75.70992
0.08007813,0.0703125,1.066406,7.099236,-15.83206,24.81679
0.07177734,0.07568359,1.080566,-19.28244,16.75573,-53.09924
0.04931641,0.000976562,1.013672,-17.48092,40.15267,-73.59542
0.1806641,-0.2714844,0.9135742,-16.37405,27.58778,-50.17557
0.02148438,-0.1938477,0.9067383,1.480916,-27.38168,53.87786
0.02539062,-0.05664063,1.037598,1.007634,-24.67939,71.27481
0.1264648,-0.03271484,1.019043,5.557252,-25.62595,43.74809
0.1069336,0.01806641,0.9946289,4.977099,-12.1374,4.129771
0.008300781,0.01855469,1.020996,-25.71756,36.23664,-52.41985
-0.05957031,-0.06494141,0.9970703,-10.78626,49.70229,-51.93893
0.09863281,-0.2382813,0.8764648,-13.61832,25.24427,-36.58015
-0.04589844,-0.1289063,1.011719,6.59542,-32.43512,57.53435
0.1025391,-0.07617188,0.9936523,11.32824,-31.19084,56.00763
0.08984375,-0.02539062,1.012695,10.74809,-17.84733,30.81679
0.05224609,0.01318359,1.024414,-2.816794,10.50382,-25.29008
0.09228517,0.02539062,1.015625,-10.09924,31.34351,-66.1145
0.03173828,-0.07080078,1.005859,-18.43511,24.0229,-46.20611
0.1318359,-0.2490234,0.925293,-4.832061,-3.007634,7.10687
0.105957,-0.1552734,0.9384766,3.221374,-31.99237,38.70992
0.03027344,-0.02880859,1.013672,8.702291,-18.72519,51.51908
0.05810547,0.001464844,1.027832,0.6412214,-19.74809,22.58015
0.03857422,-0.005371094,0.9467773,-19.58015,21.77862,-37.35878
0.06152344,-0.08398438,0.9750977,-19.34351,26.74046,-51.62595
0.0390625,-0.2666016,0.9194336,-4,18.40458,-39.9542
0.04833984,-0.2617188,0.9272461,-1,-24.1145,37.41984
0.008300781,-0.1181641,0.9580078,-8.412213,-29.66412,53.94656
0.01025391,-0.1088867,0.9946289,3,-43.05344,31.49618
-0.01904297,-0.02636719,1.019043,-16.68702,19.64122,-52.19084
0.1206055,-0.06494141,1.002441,-7.832061,61.47328,-71.229
0.1010742,-0.2583008,0.9140625,-9.366412,13.37405,-33.73283
-0.005371094,-0.1826172,0.9458008,-4.351145,-25.40458,49.84733
0.05175781,-0.06347656,0.9682617,14.70229,-30.36641,65.70992
0.05029297,-0.02099609,1.02832,5.351145,-12.92366,21.35878
0.1088867,-0.06396484,0.9814453,-12.24428,15.77863,-31.28244
0.09375,-0.1015625,0.9956055,5.709924,49.19847,-61.24427
-0.09814453,-0.1157227,0.9863281,-19.22137,29.18321,-58.15267
0.03710938,-0.309082,0.871582,-11.50382,7.900764,-20.06107
0.1108398,-0.3251953,0.9487305,-2.625954,-53.68702,46.54198
0.08154297,-0.2211914,1.032715,18.72519,-29.24427,47.46565
0.1958008,-0.137207,1,-31.9771,-139.6031,0.5038168
0.8779297,-0.2299805,0.5478516,-10.46565,-104.7176,-15.19084
0.925293,-0.1533203,0.347168,-4.938932,37.08397,-1.381679
0.8574219,-0.09667969,0.5576172,-18.71756,166.8397,-27.65649
0.2670898,-0.1645508,0.9018555,-18.83969,5.717557,-22.58015
0.199707,-0.1708984,0.9628906,-6.526718,-2.473282,1.664122
0.1958008,-0.1674805,0.9487305,-5.564886,4.328244,-3.664122
0.2011719,-0.175293,0.9550781,-5.351145,0.1526718,-1.801527
0.2216797,-0.168457,0.956543,-4.427481,0.2824428,-1
0.3852539,-0.253418,0.8671875,-15.32061,-40.41985,37.79389
0.5380859,-0.1220703,0.7548828,32.37405,-162.9084,40.84733
0.6914063,-0.1254883,0.7158203,-20.59542,44.87786,-29.21374
0.6352539,-0.1621094,0.7397461,-17.41221,7.152672,0.3816794
0.5722656,-0.1899414,0.7851563,-17.25954,22.01527,-0.6717557
0.5415039,-0.2167969,0.8354492,-7.160306,-1.290076,-0.7251908
0.3632813,-0.1748047,0.8642578,-22.24427,58.12214,-29.46565
0.2167969,-0.2856445,0.9624023,-19.0458,72.32825,-45.63359
0.06933594,-0.34375,0.8935547,-14.67176,33.29008,-33.32061
0.02246094,-0.3955078,0.8671875,-9.007633,-2.877863,17.77099
-0.2319336,-0.2807617,0.9716797,-7.580153,4.442748,-15.06107
-0.1479492,-0.2353516,0.9140625,-3.122137,25.47328,-46.0458
-0.06542969,-0.4282227,0.8173828,8.931297,64.52672,-76.47328
-0.1845703,-0.3798828,0.881836,19.34351,13.35114,-34.64885
-0.1855469,-0.07617188,0.909668,46.85496,-15.34351,-16.0229
-0.08544922,-0.06787109,1.018066,23.00763,-4.641222,-24.89313
-0.001953125,-0.05126953,0.949707,-16.44275,-0.6259542,-15.8626
0.01660156,-0.05224609,0.9448242,5.419847,1.290076,-6.770992
0.04101563,-0.1157227,0.9272461,-11.12977,9.862596,-4.48855
-0.1479492,-0.01416016,0.9580078,-0.08396947,9.908397,-58.07634
0.008300781,-0.01855469,0.9545898,2.564886,6.526718,-45.68702
-0.07177734,-0.01611328,0.921875,-4.221374,18.96183,-88.48092
-0.05126953,-0.02587891,0.965332,8.465649,-8.694656,-56.73283
-0.03515625,0.01464844,0.9941406,-0.03816794,37.34351,-69.16794
0.02001953,0.04443359,0.9633789,-6.625954,-18.22901,-78.73283
0.265625,0.08691406,1.111816,-11.69466,18.19847,-50.24427
0.284668,-0.003417969,1.081543,-23.06107,7.450382,51.54198
0.08837891,0.01318359,1.042969,-46.58015,-31.83969,118.9924
0.109375,-0.009765625,0.9013672,-62.71756,-37.45802,186.5725
-0.2026367,-0.04101563,0.96875,-47.51146,-51.05344,186.7099
-0.534668,0.168457,0.9086914,-11.91603,-46.74809,158.8015
-0.04980469,0.04101563,0.9658203,-11.47328,-58.9084,114.8473
-0.06884766,0.04785156,0.7666016,-23.61069,-41.9771,-37.04581
0.006835938,-0.04296875,0.9589844,2.679389,-18.03053,-10.80916
-0.1484375,0.1264648,1.026855,-19.51145,36.45038,-81.51908
-0.08251953,0.03710938,0.9692383,-1.091603,63.82443,-180.6488
0.1547852,-0.04541016,0.925293,35.46565,3.717557,-162.8931
0.07910156,-0.1157227,1.081055,21.0458,21.45802,-129.8855
0.206543,-0.1088867,1.132813,-2.076336,6.099236,-53.73283
0.1855469,-0.09326172,0.9946289,-40.58779,1.29771,70.29008
-0.002929688,0.003417969,1.014648,-46.19848,-28.22137,158.6336
0.1464844,0.1728516,0.7324219,1.824428,-65.0687,227.0534
-0.1870117,0.2241211,1.074219,31.22901,-50.7939,107.2824
-0.1030273,0.2324219,1.03418,1.91603,-7.870229,-8.893129
-0.03564453,0.1586914,0.9956055,-46.24427,41.89313,-105.6412
0.09375,-0.01513672,0.9458008,-23.39695,-1.961832,-151.7481
0.1616211,-0.121582,0.9433594,7.312977,14.87786,-115.3969
0.2099609,-0.2055664,1.043457,2.167939,-5.358778,-37.62595
0.262207,-0.2265625,0.9819336,-19.83206,-10.06107,50.84732
0.08398438,-0.1513672,0.9082031,-8.206107,-6.061068,82.28244
-0.1147461,-0.01123047,0.96875,16.93893,-34.14504,91.65649
0.02392578,0.0078125,0.9716797,17.68702,-26.15267,79.45039
-0.05419922,0.1049805,1.03418,-3.458015,-5.465649,12.49618
0.02880859,0.01660156,1.018555,-12.12977,25.9313,-63.82443
0.02929688,-0.01464844,0.925293,-13.41985,22.79389,-113.8702
-0.000488281,-0.1259766,0.9594727,5.427481,3.061069,-57.01527
0.1445313,-0.2182617,0.9448242,-21.67939,1.778626,21.43511
0.004394531,-0.1206055,0.9487305,7.19084,-19.19084,64.87023
-0.08447266,-0.1259766,0.8886719,13.82443,-16.64122,51.48092
-0.09667969,0.04833984,1.009766,13.23664,-25.20611,47.01527
-0.03466797,0.1152344,1.00293,-4.183206,-9.038168,-7.648855
-0.02490234,0.06494141,1.016113,-14.15267,8.656488,-30.98473
0.01367188,0.03125,0.9648438,-19.10687,10.70229,-55.87786
0.09765625,-0.1152344,0.9580078,-7.679389,8.977099,-60.45802
0.03710938,-0.1616211,0.9438477,-1.954198,-1.89313,5.839694
0.02636719,-0.1191406,0.9536134,-2.793893,0.2519084,36.14504
0.1469727,-0.01171875,0.918457,25.90076,-13.26718,61.82443
0.03613281,0.2001953,1.030273,15.83969,-24.92366,29.83969
0.1020508,0.1381836,0.9453125,-24.75573,28.33588,-70.32825
0.128418,-0.03271484,0.9580078,-23.76336,13.34351,-47.45038
0.09765625,-0.1191406,0.9765625,-1.229008,-6.80916,-1.328244
0.03466797,-0.06933594,1.004883,-5.022901,1.458015,-2.10687
0.06152344,-0.06054688,0.9936523,0.7938931,-0.4503817,19.72519
0.06738281,0.05712891,0.9609375,18.42748,-39.54198,84.16795
0.1650391,0.02099609,0.9404297,-0.6259542,-21.0458,42.12214
0.1206055,0.0625,1.057129,-16.0458,13.05344,-34.70992
0.1757813,-0.01660156,0.9633789,-20.73282,12.72519,-35.0458
0.1591797,-0.05859375,0.9404297,-2.801527,0.3206107,-7.946565
0.08935547,-0.05273438,0.9780273,-2.885496,-1.496183,0.4427481
0.09326172,-0.02587891,0.9853516,-7.938932,0.7022901,-6.08397
0.2099609,-0.1098633,0.9204102,2.89313,-9.40458,29.12977
0.1381836,0.07373047,0.9912109,20.37405,-12,31.70229
0.2026367,0.08398438,0.9794922,-1.969466,-7.366412,13.39695
0.2207031,0.06347656,1.060059,-11.22137,13.33588,-14.79389
0.04199219,0.03076172,0.9624023,-20.85496,35.82443,-59.68702
0.07861328,-0.1337891,0.9443359,-30.34351,26.07634,-84.33588
0.08447266,-0.2587891,0.9150391,-13.42748,17.41985,-14.69466
0.007324219,-0.2250977,0.9443359,-5.732825,3.679389,46.82443
-0.08593751,-0.08984375,0.9750977,18.77863,-44.27481,96.87023
0.06689453,0.03564453,0.9624023,13.61832,-38.74046,57.48855
0.09228517,0.04443359,1.058105,4.351145,-16.57252,16.57252
0.08789063,0.03955078,1.008789,-8.427481,21.35878,-55.1145
0.03710938,0.0390625,0.9228516,-11.62595,42.39695,-50.20611
-0.01025391,-0.1162109,0.9633789,7.61832,32.12977,25.16031
-0.02050781,0.02587891,0.9897461,1.122137,-13.22901,7.412214
-0.03173828,0.03808594,1.001953,-0.8473283,-13.24428,23.47328
0.08740234,-0.009277344,0.9580078,-7.80916,-14.54198,30.77099
0.1547852,0.0625,0.9619141,15.03053,-31.31297,45.96183
0.2260742,0.1108398,0.9956055,6.358778,-13.28244,-2.160305
0.203125,0.06591797,0.9648438,-13.79389,12.81679,-25.05343
0.1621094,0.03466797,0.9365234,-9.534351,21.74046,-37.94656
0.08740234,-0.04394531,1.015137,-10.28244,23.45802,-60.26717
-0.2236328,0.1206055,0.7631836,48.19084,54.07634,9.870229
0.01757812,-0.06738281,1.019531,-27.9542,2.419847,-24.45038
-0.01806641,-0.005371094,0.925293,-25.00763,-17.61832,17.72519
-0.04736328,-0.2070313,1.046387,-8.847328,-26.41221,7.832061
0.1308594,-0.2539063,0.9863281,-19.19084,5.061068,-11.46565
0.1552734,-0.253418,0.9594727,25.63359,-17.50382,63.8168
0.1342773,-0.07421875,0.9609375,16.19084,-19.96183,41.66412
0.206543,0.01025391,1.004883,-7.045802,-19.96183,19.67175
0.2460938,-0.1015625,0.9267578,-27.48092,14.91603,-32.89313
0.1635742,-0.09912109,0.9848633,-6.38168,-1.900763,-2.335878
0.2050781,-0.1069336,0.9658203,-4.244275,4.832061,-0.2977099
0.1899414,-0.1708984,0.9204102,-7.847328,11.56489,-0.07633588
0.2558594,-0.1865234,0.9135742,2.091603,-14.70992,10.9771
0.1982422,-0.04882813,0.9848633,8.259542,-13.57252,4.351145
0.2978516,-0.1435547,0.9121094,-5.885496,2.198473,-4.40458
0.2553711,-0.09423828,0.9296875,-7.854962,3.580153,-5.824428
0.2670898,-0.08251953,0.9902344,-3.954198,-6.312977,6.656488
0.2431641,-0.09765625,0.9892578,1.312977,0.2977099,-0.1908397
0.1850586,-0.01269531,0.9223633,14.91603,25.61069,-6.29771
0.08642578,-0.01708984,0.9731445,33.29008,40.21374,22.24427
0.04785156,0,1.007324,-111.6336,-107,-0.4274809
-0.04150391,-0.05419922,0.965332,-4.29771,0.0610687,-2.923664
0.04199219,-0.01269531,0.9819336,-3.450382,0.1145038,-1.206107
0.03955078,-0.01367188,0.9755859,-3.381679,0.2213741,-1.038168
0.04443359,-0.01367188,0.9624023,-3.137405,0.2137404,-1.038168
0.04589844,-0.009277344,0.9736328,-3.282443,0.08396947,-0.9236641
0.04589844,-0.01123047,0.9790039,-3.221374,0.389313,-1.10687
0.04052734,-0.01367188,0.9790039,-3.312977,0.2442748,-1.015267
0.04882813,-0.01220703,0.9804688,-3.152672,0.1068702,-1.29771
0.03417969,-0.02050781,0.9794922,-3.427481,0.1374046,-1.022901
0.04101563,-0.01318359,0.9799805,-3.580153,0.1450382,-1.167939
0.03466797,-0.01464844,0.9829102,-3.167939,0.3587786,-0.9694656
-0.1845703,-0.1801758,0.7436523,-6.374046,0.2366412,-21.89313
-0.1074219,-0.1362305,1.166992,-20.33588,48.22138,-4.122138
-0.144043,-0.000976562,1.077148,-51.30534,-11.75572,-23.33588
-0.07714844,-0.3862305,0.7250977,-57.80152,88.16031,-87.1832
0.06396484,-0.5097656,0.9418945,-45.45038,95.31298,-145.0916
0.284668,-0.612793,0.6132813,22.53435,71.25954,-66.19847
0.01953125,-0.5175781,0.8383789,30.70992,-8.541985,15.77099
0.05078125,-0.4624023,0.7490234,29.19847,-13.06107,1.694656
-0.01367188,-0.1342773,1.078125,101.6565,-5.748092,46.01527
0.08984375,-0.1357422,1.323242,-50.16031,24.45038,-0.2519084
-0.04736328,-0.2026367,0.8461914,-68.51145,-20.96947,69.32825
0.3012695,-0.5976563,0.7470703,-31.35878,-96.71756,51.84733
-0.02587891,-0.6040039,0.5703125,-33.89313,58.39695,5.541985
-0.1303711,-0.4516602,0.7695313,88.35114,30.79389,12.23664
-0.05566406,-0.2573242,1.097656,64.49619,-52.66412,15.83969
0.1005859,-0.1342773,1.097168,9.305344,-11.28244,18.41985
-0.03857422,-0.02929688,1.041992,5.442748,6.145038,13.21374
-0.04296875,-0.01806641,1.168457,-1.19084,-8.961832,-7.954198
0.08984375,-0.01123047,0.9443359,-20.87023,14.92366,-13.45802
0.015625,-0.1459961,1.007813,-57.58015,19.85496,-6.870229
-0.105957,-0.4086914,0.7167969,-54.26717,31.82443,-14.12214
-0.1455078,-0.2373047,0.9174805,75.30534,-12.19084,24.22137
-0.09912109,-0.1191406,1.143555,33.34351,-12.61069,0.1832061
-0.1142578,-0.02734375,1.112793,6.473282,-13.41985,-14.48855
-0.03515625,0.06933594,0.9414063,7.946565,-5.007634,-37.9542
0.1274414,0.0078125,1.050781,-5.114504,25.18321,-43.92366
-0.105957,0.006835938,0.9282227,-19.8855,6.068702,56.06107
0.2041016,0.01757812,0.894043,-14.77099,-14.41221,109.7405
-0.1430664,0.1918945,0.8984375,-15.98473,-28.09924,85.52672
-0.1928711,0.1708984,0.8242188,-25.25191,-46.12214,-53.87786
-0.04248047,0.1625977,0.8364258,-4.610687,4.526718,-100.1527
0.2529297,0.000488281,0.980957,-6.137404,0.1068702,-98.52672
0.175293,-0.1367188,1.103027,-4.167939,2.793893,3.137405
0.06884766,0.01708984,0.9609375,0.610687,16.94657,62.19848
-0.02050781,0.2241211,0.9228516,6.175572,3.992366,78.60305
-0.1577148,0.2836914,1.02002,-10.81679,0.6564885,39.48092
-0.04199219,0.05517578,0.8266602,-40.94656,3.625954,-39.67939
-0.03222656,0.06054688,0.7963867,-43.9313,19.45802,-66.51908
0.07080078,-0.2524414,0.7514648,-10.98473,27.63359,-32.77863
0.05371094,-0.2724609,0.887207,1.709924,-0.4732824,30.25954
-0.02636719,-0.1142578,0.9873047,6.748092,-25.67939,63.59542
0.07128906,-0.1186523,0.9658203,13.9771,-30.85496,61.8168
0.1225586,0.009765625,0.9741211,3.870229,-19.43511,29.17557
0.1435547,0.0390625,1.054199,7.931298,19.41221,-20.9084
0.1640625,0.02392578,1.001953,-30.29008,-0.7709923,-2.801527
0.3081055,-0.1591797,0.7250977,-20.90076,-37.40458,-48.83969
0.5166016,-0.1918945,0.8256836,3.343511,9.305344,7.625954
0.3564453,-0.02246094,0.9257813,30.19084,-6.541985,31.38931
0.3842773,0.09521483,0.9189454,25.86259,43.64885,30.58015
0.1787109,0.1342773,0.9838867,3.89313,5.259542,0.5038168
0.2773438,0.05566406,0.9458008,-20.20611,4.503817,-32.43512
0.1577148,0.04589844,1.02832,-25.87023,39.70992,-51.71756
0.3608398,-0.1547852,0.8720703,-16.81679,-3.206107,-10.74046
0.2060547,-0.01953125,0.9936523,19.31297,-5.152672,34.67176
0.1962891,0.03662109,1.01123,7.885496,-7.015267,30.60305
0.09375,0.04394531,0.9882813,-5.305344,-3.412214,12.39695
0.2270508,0.02148438,0.9755859,-16.64122,20.40458,-14.96947
0.1279297,-0.06201172,0.984375,-15.48092,8.488549,-27.84733
0.1992188,-0.1274414,0.9399413,-19.45802,2.312977,-13.37405
0.1757813,-0.08300781,0.9521484,7.328244,-14.08397,11.9542
0.1147461,-0.01464844,0.9794922,2.083969,-13.51908,21.26718
0.1806641,-0.03417969,0.987793,-4.076336,4.122138,-8.625955
0.1049805,-0.046875,0.9941406,-6.931298,6.763359,-15.0916
0.08349609,-0.05273438,0.9746093,-14.50382,9.221375,-20.50382
0.1352539,-0.1079102,0.9614258,-4.221374,-1.946565,3.70229
0.1401367,-0.08886719,0.9736328,0.8244275,-11.16031,12.57252
0.1567383,-0.07568359,0.9775391,-0.5801527,-6.129771,16.09924
0.1508789,-0.05908203,0.9677734,5.473282,-5.938932,26.0458
0.152832,-0.02929688,0.9926758,4.877862,5.480916,1.442748
0.1708984,-0.01269531,0.9824219,-2.274809,-4.274809,0.1374046
0.08935547,-0.01806641,0.9902344,-13.42748,16.99237,-29.62595
0.1503906,-0.07910156,0.9643555,-18.61832,9.755725,-12.60305
0.0625,-0.08203125,0.9448242,0.5648855,12.1374,-22.38931
0.04101563,-0.078125,1.020508,3.519084,1.465649,-2.854962
-0.008300781,-0.05908203,0.9975586,-16.72519,1.625954,-1.969466
0.1220703,-0.1704102,0.934082,-14.44275,-7.29771,7.534351
0.1591797,-0.1323242,0.9833984,20.16031,-8.328244,23.58015
0.1499023,-0.04736328,0.9580078,18.41221,-21.25191,17.37405
0.1547852,0.005371094,1.061035,-7.572519,2.175573,-2.984733
0.1826172,-0.0546875,0.9487305,-31.16794,28.33588,-19.68702
0.1235352,-0.1269531,0.8710938,3.045802,-18.22901,-23.58778
0.2324219,-0.1103516,0.984375,14.30534,20.75573,-15.1145
0.1826172,-0.1694336,1.03418,-30.74809,14.58015,3.412214
0.2192383,-0.1166992,0.8227539,23.26718,-25.79389,31.20611
0.1831055,0.05224609,0.9941406,36.03053,-33.22137,9.916031
0.1879883,0.04150391,0.9614258,-60.1832,-7.160306,-30.74809
0.1977539,-0.05419922,0.840332,-2.48855,23.41985,-24.51908
0.1572266,-0.09521483,0.940918,-1.984733,29.78626,-38.0229
0.2553711,-0.07324219,0.9614258,21.72519,-11.29008,9.274809
0.2060547,-0.1083984,0.8388672,-42.16794,-12.01527,19.59542
0.07763672,-0.08251953,0.9404297,16.71756,-6.862596,54.15267
0.2275391,0.05615234,0.9614258,41.96183,-48.12977,19.08397
0.1821289,0.05078125,1.039551,-49.60305,16.80916,-23.25191
0.2773438,-0.1142578,0.8666992,-7.740458,60.51145,-40.84733
-0.015625,-0.1298828,1.015137,0.4198473,12.87786,-19.24427
0.04833984,-0.1557617,1.054688,-18.65649,9.396947,2.656489
-0.01416016,-0.09130859,0.9106445,-12.22901,2.908397,19.54962
-0.000976562,-0.09960938,0.9594727,14.37405,-13.03053,25.87023
0.08203125,-0.1225586,1.006836,-6.633588,-8.801527,16.09924
0.08544922,-0.140625,0.9853516,-14.42748,13.38931,-9.488549
0.06445313,-0.1875,1.009766,-9.931298,6.267175,-14.78626
0.05957031,-0.1767578,0.9707031,-0.3740458,3.221374,-5.770992
0.1142578,-0.1108398,0.8945313,24.00763,-11.0458,-3.969466
0.03027344,-0.1289063,1.047852,-28.86259,9.015267,-12.39695
0.02050781,-0.1586914,0.7954102,-1.610687,2.526718,18.50382
0.08984375,-0.07666016,0.9667969,35.51145,-25.64122,19.47328
0.05615234,-0.1118164,0.9375001,-14.83969,1.961832,-3.328244
0.1010742,-0.06933594,0.9375001,-23.18321,27.59542,-24.81679
0.04589844,-0.1220703,0.9121094,-3.832061,12.58779,-28.03053
0.06982422,-0.1601563,1.105957,6.862596,-7.732825,4.137404
-0.01367188,-0.1108398,0.9594727,-9.160305,2.290076,0.519084
0.1376953,-0.1367188,0.84375,-19.48855,-27.87786,36.41221
0.04785156,-0.04541016,1.00293,38.42748,-23.78626,40.15267
0.2114258,-0.03320313,1.095703,-33.80916,15.17557,-10.58015
0.2163086,-0.1533203,0.9116211,-27.9542,5.38168,-28.63359
0.1948242,-0.1865234,0.9370117,11.32061,15.35878,-10.38168
0.09765625,-0.1894531,0.9707031,-20.43511,26.34351,-24.86259
0.1879883,-0.1782227,0.831543,14.82443,-31.87023,37.48092
0.2773438,-0.002441406,1.018066,35.89313,-45.70229,8.229008
0.3652344,-0.1308594,0.8725586,-29.64886,20.48855,-6.694656
0.2504883,-0.1303711,0.9365234,18.80916,1.91603,6.068702
0.2231445,-0.07910156,1.129883,-2.778626,4.984733,4.267176
0.2055664,-0.1308594,0.921875,-32.85496,33.41985,-14.70992
0.2871094,-0.1992188,0.8828125,32.53435,-13.18321,14.35114
0.1572266,-0.15625,0.9648438,-30.30534,26.76336,-21.15267
0.2250977,-0.2324219,0.8676758,14.85496,-18.80916,11.8626
0.005371094,-0.1567383,1.058105,-18.9313,21.76336,-12.43511
0.1655273,-0.2514648,0.8989258,24.09924,-12.0458,4.801527
0.02929688,-0.1435547,1.001953,-24.67939,24,-17.27481
0.1513672,-0.2241211,0.8056641,18.67175,-15.37405,4.206107
0.01708984,-0.1474609,1.023438,-32.38931,13.45802,-7.603054
-0.02685547,-0.1386719,0.9013672,28.63359,5.076336,-18.83206
0.01904297,-0.109375,0.921875,10.22901,10.29008,-14.64886
0.02441406,-0.08349609,0.9033203,3.320611,-10.39695,-4.007634
0.08886719,-0.1933594,0.9482422,-13.9771,5.908397,-1.496183
0.1074219,-0.04589844,0.8779297,-7.70229,-2.114504,-0.8015267
0.09960938,-0.02685547,0.9736328,-3.320611,0.2671756,-1.19084
0.1010742,-0.02783203,0.9697266,-1.931298,0.8396947,-1.145038
0.09619141,-0.02099609,0.9819336,-3.007634,0.2290076,-1.053435
0.09082031,-0.01806641,0.9716797,-3.503817,0.2748091,-1.015267
0.09472656,-0.01611328,0.9697266,-3.557252,0.1984733,-1.221374
0.1064453,-0.01708984,0.980957,-3.305344,0.2213741,-1.038168
0.09033203,-0.01757812,0.9794922,-2.748092,0.259542,-1.145038
0.09570313,-0.01416016,0.9819336,-3.603053,0.129771,-1.091603
0.1079102,-0.01464844,0.9765625,-3.122137,0.259542,-1.045802
0.1054688,-0.01757812,0.9765625,-3.564886,0.3969466,-1.145038
0.09423828,-0.002929688,0.9741211,-3.48855,0.2748091,-1.229008
0.1069336,-0.01171875,0.9736328,-3.244275,0.2290076,-0.9694656
0.1020508,-0.01171875,0.984375,-3.412214,0.1221374,-1.030534
0.1049805,-0.01171875,0.9868164,-3.160305,0.3816794,-0.961832
0.09521483,-0.01220703,0.9726563,-3.450382,0.2213741,-1.267176
0.105957,-0.008789062,0.9765625,-1.580153,0.5648855,-1.030534
0.1040039,-0.01318359,0.9750977,-3.083969,0.2290076,-0.9694656
0.09228517,-0.004394531,0.9824219,-3.358779,0.1526718,-1.038168
0.09521483,-0.009765625,0.9721681,-3.480916,0.3206107,-1.114504
0.09863281,-0.008300781,0.9726563,-3.366412,0.2290076,-0.9847328
0.09716797,-0.008789062,0.9765625,-3.312977,0.03816794,-1.053435
0.1000977,-0.008300781,0.980957,-3.137405,0.1832061,-1.068702
0.09960938,-0.007324219,0.9721681,-3.450382,0.09923664,-1.099237
0.1020508,-0.01025391,0.9731445,-3.21374,0.3053435,-0.8778625
0.1040039,-0.004882812,0.9765625,-3.083969,-0.02290076,-1.183206
0.1064453,-0.009277344,0.9760742,-3.374046,0.2366412,-0.8167939
0.1005859,-0.01757812,0.9716797,-3.091603,0.4656488,-1.076336
0.09277344,-0.002929688,0.9697266,-3.381679,0.2671756,-1.114504
0.09960938,-0.009277344,0.9804688,-3.290076,0.4122138,-1.099237
0.09130859,-0.002441406,0.9746093,-3.389313,0.4580153,-1.038168
0.09814453,-0.004882812,0.9882813,-3.328244,0.1679389,-1.167939
0.1040039,-0.005371094,0.9838867,-3.282443,0.3358779,-1.068702
0.1074219,-0.01074219,0.9726563,-3.358779,0.3435115,-1.022901
0.09765625,-0.005371094,0.984375,-3.480916,0.1984733,-1.10687
0.1010742,-0.01025391,0.9785156,-3.351145,-0.0610687,-0.9389313
0.1025391,-0.006347656,0.9736328,-3.473282,0.259542,-1.099237
0.09814453,-0.004882812,0.9780273,-4.274809,-0.007633588,-1.160305
0.1040039,-0.002929688,0.9790039,-3.29771,0.5267176,-1.160305
0.09765625,-0.004394531,0.9770508,-3.267176,0.2137404,-1.091603
0.09472656,-0.008789062,0.9804688,-3.045802,0.259542,-0.9541985
0.09765625,-0.004394531,0.9848633,-3.442748,0.3587786,-1.022901
0.09814453,-0.009277344,0.980957,-3.122137,0.09160305,-1.068702
0.09619141,-0.006835938,0.9677734,-1.526718,0.6030535,-1.10687
0.1015625,-0.0078125,0.9721681,-3.587786,0.1526718,-1.061069
0.1015625,-0.0078125,0.9858398,-3.519084,0.03053435,-0.9465649
0.1044922,-0.004882812,0.9804688,-3.603053,0.1832061,-1.160305
0.1030273,0,0.9785156,-3.572519,0.2213741,-1.061069
0.1000977,-0.001953125,0.9755859,-3.419847,-0.007633588,-1.442748
0.09765625,-0.008789062,0.9824219,-3.480916,0.2519084,-1.061069
0.1005859,-0.009277344,0.9824219,-3.427481,0.3358779,-1.015267
0.09765625,-0.00390625,0.9770508,-3.480916,0.2748091,-1.091603
0.09130859,-0.003417969,0.9765625,-3.221374,0.1984733,-1.145038
0.09326172,-0.000976562,0.9863281,-3.282443,0.129771,-1.091603
0.09179688,0,0.9711914,-3.557252,0.1450382,-0.9083969
0.1010742,-0.004882812,0.9794922,-3.412214,0.4351145,-0.9007633
0.09130859,-0.002929688,0.9814453,-3.328244,0.06870229,-1.221374
0.09765625,-0.01269531,0.9785156,-3.244275,0.2366412,-1.061069
0.09570313,-0.001953125,0.9711914,-3.274809,0.1603054,-1.206107
0.09277344,-0.000976562,0.9780273,-4.030534,0.02290076,0.480916
0.09277344,-0.000976562,0.9868164,-3.175573,0.1526718,-1.015267
0.1035156,-0.002929688,0.96875,-3.251908,0.1374046,-1.259542
0.09326172,-0.000976562,0.9824219,-3.366412,0.4503817,-1.045802
0.1010742,-0.000488281,0.9765625,-3.549618,0.3358779,-0.9389313
0.1044922,-0.00390625,0.980957,-3.312977,0.4045802,-0.8015267
0.09521483,-0.008789062,0.9785156,-3.519084,0.1832061,-0.9465649
0.09277344,-0.01806641,0.9526367,-9.61832,-1.152672,-1.061069
0.2329102,-0.253418,1.111816,1.641221,22.24427,-4.465649
0.1196289,-0.1225586,0.8046875,-5.717557,4.267176,43.72519
0.02099609,0.1665039,1.041016,8.480916,-6.061068,5.778626
0.1567383,0.04882813,0.9907228,9.030535,-14.51145,-7.244275
0.09277344,0.04492188,0.9716797,-2.793893,1.793893,4.70229
0.4829102,-0.08691406,0.9853516,-1.48855,-3.10687,13.28244
0.1987305,-0.02246094,0.9936523,-3.801527,-0.5343512,-6.175572
0.1108398,0.001953125,0.9775391,-3.465649,-0.09160305,-1.045802
0.1943359,0.01513672,1.12207,-19.15267,15.07634,12.67176
-0.04638672,-0.01953125,1.100586,12.58015,-19.31297,30.06107
0.5366211,0.2314453,0.6396484,15.0916,16.0229,-2.725191
0.03369141,-0.007324219,0.9824219,-3.450382,0.4351145,-1.08397
0.03466797,-0.004882812,0.9819336,-3.40458,0.1679389,-1.091603
0.02197266,-0.03027344,0.9643555,-2.877863,6.480916,-9.167939
0.07421875,-0.000488281,0.9741211,-1.519084,-1.419847,-2.78626
0.02783203,-0.006347656,0.9829102,-3.534351,0.3740458,-0.9465649
0.03271484,-0.008300781,0.9702148,-3.351145,0.09923664,-1.175573
0.03808594,-0.0078125,0.9819336,-3.312977,0.2290076,-1.022901
0.03808594,-0.008789062,0.9775391,-3.435114,0.04580153,-0.8015267
0.03222656,-0.002441406,0.9746093,-3.312977,0.1450382,-1.022901
0.03173828,-0.004882812,0.9780273,-3.312977,0.1221374,-1.022901
0.02880859,-0.0078125,0.9736328,-3.366412,0.2748091,-0.9923665
0.03369141,-0.01025391,0.9814453,-3.351145,0.129771,-1.129771
0.03027344,-0.005371094,0.9824219,-3.503817,-0.01526718,-0.9770992
0.03222656,-0.006347656,0.9882813,-3.29771,0.1984733,-1.114504
0.03515625,-0.01171875,0.9819336,-3.29771,0.2290076,-0.8778625
0.03515625,-0.01806641,0.9731445,-2.603053,0.5114504,-0.9083969
0.03027344,-0.01025391,0.9750977,-3.465649,0.6335878,-1.091603
0.03564453,-0.01171875,0.9692383,-3.351145,0.1068702,-1.053435
0.03320313,-0.009765625,0.9770508,-3.335878,0.1603054,-1.114504
0.03222656,-0.00390625,0.9736328,-3.435114,0.1526718,-1
0.03271484,-0.01367188,0.9765625,-3.549618,0.2290076,-1.08397
0.03564453,-0.008300781,0.9829102,-3.389313,0.2748091,-1.030534
0.03271484,-0.006835938,0.9731445,-3.526718,0.2137404,-1.076336
0.04248047,-0.009277344,0.9848633,-3.19084,-0.007633588,-0.9083969
0.02783203,-0.01123047,0.9799805,-3.29771,0.2366412,-1.10687
0.02929688,-0.004882812,0.9848633,-3.198473,0.1984733,-1.160305
0.03369141,-0.009765625,0.9785156,-3.343511,0.1526718,-1.061069
0.03173828,-0.009277344,0.9672852,-3.587786,0.4274809,-1.030534
0.03027344,-0.009277344,0.9736328,-3.328244,0,-0.9694656
0.03173828,-0.01611328,0.9838867,-3.458015,0.2137404,-0.9694656
0.02539062,-0.009277344,0.9785156,-3.557252,0.4198473,-1.015267
0.03222656,-0.008789062,0.9780273,-3.29771,0.3664122,-0.9770992
0.03808594,-0.008789062,0.9746093,-3.435114,0.05343511,-1.091603
0.03710938,-0.01171875,0.9780273,-3.496183,0.09160305,-1.099237
0.03076172,-0.01025391,0.9721681,-3.48855,0.2824428,-0.9083969
0.03320313,-0.009277344,0.9721681,-3.335878,0.1984733,-0.9007633
0.02929688,-0.009277344,0.9863281,-3.305344,0.129771,-1.08397
0.03173828,-0.01074219,0.9799805,-3.267176,0.3587786,-1.10687
0.02880859,-0.009277344,0.9790039,-3.450382,0.007633588,-1.229008
0.02978516,-0.01123047,0.9760742,-3.312977,0.2748091,-1.175573
0.02734375,-0.005371094,0.9750977,-3.412214,0.1984733,-1.129771
0.02880859,-0.01025391,0.9731445,-3.473282,0.1450382,-1.145038
0.02929688,-0.01269531,0.9799805,-3.160305,0.1755725,-0.9312977
0.02832031,-0.01269531,0.9790039,-3.381679,0.3587786,-1.183206
0.03173828,-0.005859375,0.9829102,-3.282443,0.2213741,-1.007634
0.03369141,-0.01513672,0.9819336,-3.343511,0.1679389,-1.076336
0.02929688,-0.01269531,0.9780273,-3.312977,0.1984733,-0.961832
0.02783203,-0.004394531,0.9853516,-3.29771,0.259542,-1.167939
0.03222656,-0.008789062,0.9799805,-3.496183,0.2213741,-1.122137
0.02441406,-0.008789062,0.9794922,-3.206107,0.1832061,-1.076336
0.03564453,-0.01025391,0.9760742,-3.381679,0.1450382,-0.9770992
0.03027344,-0.01513672,0.9887695,-3.450382,0.1526718,-1.099237
0.03466797,-0.004882812,0.9887695,-3.366412,0.1145038,-1.145038
0.02685547,-0.01220703,0.9663086,-3.458015,0.06870229,-1.21374
0.03173828,-0.01123047,0.9750977,-3.442748,0.2748091,-1.030534
0.03027344,-0.009765625,0.9775391,-3.351145,0.1526718,-1.099237
0.03320313,-0.01025391,0.9848633,-3.19084,0.2213741,-1.061069
0.03417969,-0.004882812,0.984375,-3.343511,0.2900764,-0.9541985
0.02832031,-0.006347656,0.9760742,-3.335878,0.04580153,-1.045802
0.02832031,-0.01171875,0.9824219,-3.503817,0.09923664,-1.10687
0.03222656,-0.008300781,0.9775391,-3.381679,0.2061069,-1.061069
0.02978516,-0.007324219,0.9892578,-3.442748,0.1221374,-1.091603
0.02929688,-0.008789062,0.980957,-3.160305,0.389313,-1.122137
0.02929688,-0.009765625,0.9760742,-3.435114,0.2671756,-0.9465649
0.03613281,-0.01464844,0.9838867,-3.564886,0.03053435,-1.137405
0.03125,-0.009277344,0.9799805,-3.496183,0.1832061,-1.114504
0.03076172,-0.01171875,0.9838867,-3.305344,0.1068702,-1.183206
0.03271484,-0.004882812,0.9770508,-3.503817,0.09923664,-0.9770992
0.03564453,-0.01171875,0.9775391,-3.358779,0.3129771,-1.198473
0.03417969,-0.01220703,0.9814453,-3.374046,0.2671756,-1.10687
0.03271484,-0.007324219,0.9873047,-3.335878,0.3587786,-1.114504
0.03417969,-0.01318359,0.9790039,-3.526718,0.1145038,-1.10687
0.02832031,-0.01123047,0.9707031,-3.435114,0.2213741,-1.244275
0.03417969,-0.001464844,0.9824219,-3.312977,0.1908397,-1.137405
0.02832031,-0.01025391,0.9829102,-3.473282,0.2061069,-1.076336
0.03222656,-0.006347656,0.9790039,-3.320611,0.1603054,-1.236641
0.02832031,-0.008300781,0.9775391,-3.412214,0.2900764,-1.251908
0.03027344,-0.01123047,0.980957,-3.496183,0.3664122,-0.8931297
0.03076172,-0.01123047,0.9833984,-3.40458,0.2290076,-1
0.03076172,-0.01025391,0.9746093,-3.236641,0.2442748,-1.091603
0.02685547,-0.006835938,0.980957,-3.587786,-0.1145038,-1.175573
0.02978516,-0.008789062,0.9770508,-3.198473,0.2442748,-1.145038
0.03808594,-0.0078125,0.9804688,-3.465649,0.2061069,-0.8778625
0.03027344,-0.009277344,0.9746093,-3.374046,0.2061069,-1.129771
0.03613281,-0.005859375,0.9897461,-3.29771,0.2061069,-1.183206
0.02929688,-0.009765625,0.9833984,-3.175573,0.3282443,-1.007634
0.03417969,-0.01074219,0.9833984,-3.389313,0.1984733,-1.099237
0.03125,-0.009277344,0.9765625,-3.274809,0.1145038,-1.068702
0.03173828,-0.009765625,0.9794922,-3.290076,0.2671756,-1.137405
0.02734375,-0.006347656,0.9916992,-3.480916,0.0610687,-0.9770992
0.02783203,-0.006347656,0.9765625,-3.312977,0.06870229,-1.122137
0.03271484,-0.01269531,0.9853516,-3.305344,-0.1832061,-1.099237
0.03613281,-0.01025391,0.980957,-3.396947,0.02290076,-1.206107
0.03320313,-0.008300781,0.9760742,-3.473282,0.351145,-1.099237
0.03369141,-0.01220703,0.9750977,-3.244275,0.2519084,-1.183206
0.02539062,-0.01367188,0.9692383,-3.435114,0.2290076,-1.045802
0.03320313,-0.01318359,0.9829102,-3.267176,0.2671756,-1.038168
0.02636719,-0.01220703,0.984375,-3.450382,0.1526718,-1.091603
0.03173828,-0.01708984,0.9814453,-3.473282,0.1984733,-1.10687
0.03173828,-0.01074219,0.9804688,-3.351145,0.4580153,-0.9770992
0.02832031,-0.004394531,0.9907228,-3.312977,0.1755725,-0.9770992
0.03320313,-0.01367188,0.9863281,-3.389313,0.129771,-0.9541985
0.03564453,-0.01123047,0.9804688,-3.381679,0.4045802,-1.152672
0.03417969,-0.008300781,0.9780273,-3.427481,0.03816794,-0.8854962
0.03027344,-0.01074219,0.9824219,-3.480916,0.2137404,-1.114504
0.03808594,-0.009277344,0.9848633,-3.450382,-0.04580153,-1.198473
0.02880859,-0.01074219,0.9882813,-3.305344,0.2977099,-1.137405
0.02929688,-0.01513672,0.9868164,-3.40458,0.3282443,-1.061069
0.03466797,-0.006835938,0.9794922,-3.412214,0.2977099,-1.068702
0.03320313,-0.006347656,0.9780273,-3.526718,0.1603054,-1.038168
0.02636719,-0.01367188,0.9780273,-3.412214,0.09923664,-1.19084
0.03271484,-0.02099609,0.9887695,-3.389313,0.1374046,-1.206107
0.03320313,-0.005859375,0.9838867,-3.320611,0.129771,-1.091603
0.03222656,-0.01269531,0.9780273,-3.496183,0.07633588,-1.076336
0.03417969,-0.01025391,0.9848633,-3.175573,0.1450382,-1
0.03125,-0.008789062,0.9887695,-3.419847,0.1145038,-1.282443
